time,gFx,gFy,gFz,ax,ay,az,wx,wy,wz,P
0.002,0.37,0.91,-0.06,-0.17,-0.10,0.15,0.01,0.05,-0.07,1012.87
0.003,0.37,0.91,-0.06,-0.17,-0.10,0.15,0.05,-0.06,-0.03,1012.87
0.004,0.37,0.91,-0.06,-0.14,0.01,-0.23,0.05,-0.06,-0.03,1012.87
0.038,0.40,0.92,-0.05,-0.14,0.01,-0.23,0.05,-0.06,-0.03,1012.87
0.039,0.40,0.92,-0.05,-0.14,0.01,-0.23,0.00,-0.05,-0.04,1012.87
0.04,0.40,0.92,-0.05,0.18,0.08,-0.07,0.00,-0.05,-0.04,1012.87
0.043,0.40,0.92,-0.05,0.18,0.08,-0.07,0.00,-0.05,-0.04,1012.87
0.076,0.36,0.91,-0.05,0.18,0.08,-0.07,0.00,-0.05,-0.04,1012.87
0.077,0.36,0.91,-0.05,0.18,0.08,-0.07,0.00,0.00,-0.06,1012.87
0.078,0.36,0.91,-0.05,-0.21,-0.03,-0.05,0.00,0.00,-0.06,1012.87
0.115,0.36,0.91,-0.05,-0.21,-0.03,-0.05,0.00,0.00,-0.06,1012.85
0.117,0.37,0.91,-0.05,-0.21,-0.03,-0.05,0.00,0.00,-0.06,1012.85
0.118,0.37,0.91,-0.05,-0.21,-0.03,-0.05,-0.00,-0.03,-0.04,1012.85
0.12,0.37,0.91,-0.05,-0.10,-0.04,-0.05,-0.00,-0.03,-0.04,1012.85
0.159,0.37,0.92,-0.04,-0.10,-0.04,-0.05,-0.00,-0.03,-0.04,1012.85
0.161,0.37,0.92,-0.04,-0.10,-0.04,-0.05,-0.01,-0.03,-0.03,1012.85
0.161,0.37,0.92,-0.04,-0.08,0.04,-0.03,-0.01,-0.03,-0.03,1012.85
0.166,0.37,0.92,-0.04,-0.08,0.04,-0.03,-0.01,-0.03,-0.03,1012.85
0.196,0.39,0.91,-0.04,-0.08,0.04,-0.03,-0.01,-0.03,-0.03,1012.85
0.199,0.39,0.91,-0.04,-0.08,0.04,-0.03,-0.00,-0.04,-0.03,1012.85
0.201,0.39,0.91,-0.04,0.14,-0.07,0.03,-0.00,-0.04,-0.03,1012.85
0.225,0.39,0.91,-0.04,0.14,-0.07,0.03,-0.00,-0.04,-0.03,1012.84
0.235,0.37,0.92,-0.04,0.14,-0.07,0.03,-0.00,-0.04,-0.03,1012.84
0.236,0.37,0.92,-0.04,0.14,-0.07,0.03,-0.00,-0.03,-0.05,1012.84
0.237,0.37,0.92,-0.04,-0.03,0.03,0.02,-0.00,-0.03,-0.05,1012.84
0.285,0.37,0.92,-0.04,0.06,0.06,-0.03,-0.00,-0.03,-0.05,1012.84
0.289,0.38,0.92,-0.05,0.06,0.06,-0.03,-0.00,-0.03,-0.05,1012.84
0.29,0.38,0.92,-0.05,0.06,0.06,-0.03,0.01,-0.02,-0.06,1012.84
0.291,0.38,0.92,-0.05,0.06,0.06,-0.03,0.01,-0.02,-0.06,1012.84
0.319,0.36,0.90,-0.05,0.06,0.06,-0.03,0.01,-0.02,-0.06,1012.84
0.321,0.36,0.90,-0.05,0.06,0.06,-0.03,0.02,-0.00,-0.07,1012.84
0.322,0.36,0.90,-0.05,-0.08,-0.14,-0.04,0.02,-0.00,-0.07,1012.84
0.345,0.36,0.90,-0.05,-0.08,-0.14,-0.04,0.02,-0.00,-0.07,1012.84
0.354,0.39,0.93,-0.04,-0.08,-0.14,-0.04,0.02,-0.00,-0.07,1012.84
0.356,0.39,0.93,-0.04,0.20,0.07,0.01,0.02,-0.00,-0.07,1012.84
0.358,0.39,0.93,-0.04,0.20,0.07,0.01,0.01,-0.01,-0.07,1012.84
0.394,0.41,0.94,-0.02,0.20,0.07,0.01,0.01,-0.01,-0.07,1012.84
0.395,0.41,0.94,-0.02,0.20,0.07,0.01,0.02,-0.02,-0.10,1012.84
0.395,0.41,0.94,-0.02,0.42,0.21,0.28,0.02,-0.02,-0.10,1012.84
0.403,0.41,0.94,-0.02,0.42,0.21,0.28,0.02,-0.02,-0.10,1012.84
0.436,0.41,0.94,-0.02,0.59,-0.04,0.86,0.02,-0.02,-0.10,1012.84
0.441,0.42,0.92,0.04,0.59,-0.04,0.86,0.02,-0.02,-0.10,1012.84
0.442,0.42,0.92,0.04,0.59,-0.04,0.86,0.08,0.03,-0.18,1012.84
0.463,0.42,0.92,0.04,0.59,-0.04,0.86,0.08,0.03,-0.18,1012.84
0.473,0.34,0.93,-0.07,0.59,-0.04,0.86,0.08,0.03,-0.18,1012.84
0.476,0.34,0.93,-0.07,0.59,-0.04,0.86,0.16,0.10,-0.25,1012.84
0.478,0.34,0.93,-0.07,-0.13,0.02,-0.15,0.16,0.10,-0.25,1012.84
0.518,0.32,0.89,-0.08,-0.13,0.02,-0.15,0.16,0.10,-0.25,1012.84
0.52,0.32,0.89,-0.08,-0.13,0.02,-0.15,0.18,0.17,-0.27,1012.84
0.522,0.32,0.89,-0.08,-0.17,-0.43,-0.27,0.18,0.17,-0.27,1012.84
0.563,0.32,0.89,-0.08,-0.17,-0.43,-0.27,0.18,0.17,-0.27,1012.83
0.564,0.42,0.92,-0.09,-0.17,-0.43,-0.27,0.18,0.17,-0.27,1012.83
0.564,0.42,0.92,-0.09,-0.17,-0.43,-0.27,0.13,-0.05,-0.26,1012.83
0.565,0.42,0.92,-0.09,0.85,-0.16,-0.32,0.13,-0.05,-0.26,1012.83
0.584,0.42,0.92,-0.09,0.85,-0.16,-0.32,0.13,-0.05,-0.26,1012.84
0.592,0.40,0.89,-0.04,0.85,-0.16,-0.32,0.13,-0.05,-0.26,1012.84
0.594,0.40,0.89,-0.04,0.85,-0.16,-0.32,0.09,-0.01,-0.38,1012.84
0.595,0.40,0.89,-0.04,0.76,-0.42,0.24,0.09,-0.01,-0.38,1012.84
0.636,0.24,0.94,-0.01,0.76,-0.42,0.24,0.09,-0.01,-0.38,1012.84
0.637,0.24,0.94,-0.01,0.76,-0.42,0.24,0.12,0.12,-0.46,1012.84
0.637,0.24,0.94,-0.01,-0.64,0.01,0.54,0.12,0.12,-0.46,1012.84
0.645,0.24,0.94,-0.01,-0.64,0.01,0.54,0.12,0.12,-0.46,1012.84
0.671,0.17,0.98,-0.06,-0.64,0.01,0.54,0.12,0.12,-0.46,1012.84
0.672,0.17,0.98,-0.06,-0.64,0.01,0.54,0.18,0.09,-0.36,1012.84
0.673,0.17,0.98,-0.06,-1.16,0.29,0.13,0.18,0.09,-0.36,1012.84
0.703,0.17,0.98,-0.06,-1.16,0.29,0.13,0.18,0.09,-0.36,1012.84
0.72,0.17,0.98,-0.06,-0.60,-0.21,-0.35,0.18,0.09,-0.36,1012.84
0.723,0.22,0.93,-0.11,-0.60,-0.21,-0.35,0.18,0.09,-0.36,1012.84
0.724,0.22,0.93,-0.11,-0.60,-0.21,-0.35,0.21,0.07,-0.21,1012.84
0.763,0.15,0.94,-0.06,-0.60,-0.21,-0.35,0.21,0.07,-0.21,1012.84
0.769,0.15,0.94,-0.06,-0.60,-0.21,-0.35,0.16,0.03,-0.07,1012.84
0.772,0.15,0.94,-0.06,-1.23,-0.09,0.23,0.16,0.03,-0.07,1012.84
0.774,0.15,0.94,-0.06,-1.23,-0.09,0.23,0.16,0.03,-0.07,1012.84
0.789,0.11,1.02,-0.10,-1.23,-0.09,0.23,0.16,0.03,-0.07,1012.84
0.792,0.11,1.02,-0.10,-1.23,-0.09,0.23,0.22,-0.06,0.14,1012.84
0.792,0.11,1.02,-0.10,-1.59,0.70,-0.11,0.22,-0.06,0.14,1012.84
0.838,0.11,1.02,-0.10,-1.59,0.70,-0.11,0.22,-0.06,0.14,1012.83
0.841,0.10,0.92,-0.15,-1.59,0.70,-0.11,0.22,-0.06,0.14,1012.83
0.843,0.10,0.92,-0.15,-1.59,0.70,-0.11,0.22,-0.09,0.38,1012.83
0.845,0.10,0.92,-0.15,-1.85,-0.22,-0.50,0.22,-0.09,0.38,1012.83
0.868,0.19,0.96,-0.11,-1.85,-0.22,-0.50,0.22,-0.09,0.38,1012.83
0.873,0.19,0.96,-0.11,-1.85,-0.22,-0.50,0.21,-0.25,0.64,1012.83
0.876,0.19,0.96,-0.11,-1.16,0.28,-0.00,0.21,-0.25,0.64,1012.83
0.911,0.19,0.96,-0.11,-1.16,0.28,-0.00,0.21,-0.25,0.64,1012.83
0.913,0.29,0.97,-0.19,-1.16,0.28,-0.00,0.21,-0.25,0.64,1012.83
0.913,0.29,0.97,-0.19,-1.16,0.28,-0.00,0.22,-0.39,0.77,1012.83
0.914,0.29,0.97,-0.19,-0.44,0.50,-0.64,0.22,-0.39,0.77,1012.83
0.953,0.29,0.97,-0.19,-0.44,0.50,-0.64,0.22,-0.39,0.77,1012.83
0.956,0.55,1.08,-0.18,-0.44,0.50,-0.64,0.22,-0.39,0.77,1012.83
0.957,0.55,1.08,-0.18,-0.44,0.50,-0.64,0.13,-0.45,0.73,1012.83
0.958,0.55,1.08,-0.18,1.85,1.63,-0.38,0.13,-0.45,0.73,1012.83
0.999,0.55,1.08,-0.18,3.20,4.62,-2.81,0.13,-0.45,0.73,1012.83
1.001,0.70,1.39,-0.43,3.20,4.62,-2.81,0.13,-0.45,0.73,1012.83
1.002,0.70,1.39,-0.43,3.20,4.62,-2.81,-0.05,-0.18,0.36,1012.83
1.003,0.70,1.39,-0.43,3.20,4.62,-2.81,-0.05,-0.18,0.36,1012.84
1.042,0.95,1.82,-0.17,3.20,4.62,-2.81,-0.05,-0.18,0.36,1012.84
1.046,0.95,1.82,-0.17,3.20,4.62,-2.81,-0.51,0.34,-0.20,1012.84
1.048,0.95,1.82,-0.17,5.56,8.67,-0.51,-0.51,0.34,-0.20,1012.84
1.079,0.95,1.82,-0.17,5.56,8.67,-0.51,-0.51,0.34,-0.20,1012.85
1.082,-0.08,1.47,-0.01,5.56,8.67,-0.51,-0.51,0.34,-0.20,1012.85
1.083,-0.08,1.47,-0.01,5.56,8.67,-0.51,-0.82,0.47,-1.20,1012.85
1.085,-0.08,1.47,-0.01,-4.01,4.89,0.74,-0.82,0.47,-1.20,1012.85
1.105,-0.53,1.08,-0.14,-4.01,4.89,0.74,-0.82,0.47,-1.20,1012.85
1.107,-0.53,1.08,-0.14,-4.01,4.89,0.74,-0.59,-0.56,-0.73,1012.85
1.109,-0.53,1.08,-0.14,-8.01,0.98,-0.74,-0.59,-0.56,-0.73,1012.85
1.128,-0.53,1.08,-0.14,-8.01,0.98,-0.74,-0.59,-0.56,-0.73,1012.84
1.164,0.35,1.28,-0.22,-8.01,0.98,-0.74,-0.59,-0.56,-0.73,1012.84
1.166,0.35,1.28,-0.22,-8.01,0.98,-0.74,0.35,-0.56,1.56,1012.84
1.167,0.35,1.28,-0.22,0.04,3.09,-1.23,0.35,-0.56,1.56,1012.84
1.182,0.61,1.42,-0.15,0.04,3.09,-1.23,0.35,-0.56,1.56,1012.84
1.185,0.61,1.42,-0.15,0.04,3.09,-1.23,1.17,0.21,2.78,1012.84
1.186,0.61,1.42,-0.15,1.53,4.81,-0.15,1.17,0.21,2.78,1012.84
1.187,0.61,1.42,-0.15,1.53,4.81,-0.15,1.17,0.21,2.78,1012.83
1.234,0.49,1.41,-0.14,1.53,4.81,-0.15,1.17,0.21,2.78,1012.83
1.237,0.49,1.41,-0.14,1.53,4.81,-0.15,1.46,1.38,2.72,1012.83
1.238,0.49,1.41,-0.14,-0.61,5.26,0.10,1.46,1.38,2.72,1012.83
1.281,0.49,1.41,-0.14,-0.61,5.26,0.10,1.46,1.38,2.72,1012.81
1.285,0.28,1.26,-0.12,-0.61,5.26,0.10,1.46,1.38,2.72,1012.81
1.289,0.28,1.26,-0.12,-0.61,5.26,0.10,1.19,2.03,2.59,1012.81
1.292,0.28,1.26,-0.12,-3.58,4.41,0.28,1.19,2.03,2.59,1012.81
1.308,0.28,1.26,-0.12,-3.43,1.85,1.07,1.19,2.03,2.59,1012.81
1.311,0.37,0.93,-0.03,-3.43,1.85,1.07,1.19,2.03,2.59,1012.81
1.311,0.37,0.93,-0.03,-3.43,1.85,1.07,0.90,1.01,2.45,1012.81
1.312,0.37,0.93,-0.03,-3.43,1.85,1.07,0.90,1.01,2.45,1012.81
1.342,0.27,0.76,-0.00,-3.43,1.85,1.07,0.90,1.01,2.45,1012.81
1.343,0.27,0.76,-0.00,-3.43,1.85,1.07,0.96,0.22,1.54,1012.81
1.344,0.27,0.76,-0.00,-4.76,0.69,1.54,0.96,0.22,1.54,1012.81
1.365,0.27,0.76,-0.00,-4.76,0.69,1.54,0.96,0.22,1.54,1012.80
1.383,0.15,0.58,0.09,-4.76,0.69,1.54,0.96,0.22,1.54,1012.80
1.386,0.15,0.58,0.09,-4.76,0.69,1.54,0.84,0.12,0.34,1012.80
1.387,0.15,0.58,0.09,-5.95,-0.90,2.60,0.84,0.12,0.34,1012.80
1.428,-0.12,0.04,0.11,-5.95,-0.90,2.60,0.84,0.12,0.34,1012.80
1.431,-0.12,0.04,0.11,-5.95,-0.90,2.60,0.46,-0.32,-1.05,1012.80
1.432,-0.12,0.04,0.11,-8.18,-6.35,2.95,0.46,-0.32,-1.05,1012.80
1.432,-0.12,0.04,0.11,-8.18,-6.35,2.95,0.46,-0.32,-1.05,1012.79
1.462,0.04,-0.03,0.07,-8.18,-6.35,2.95,0.46,-0.32,-1.05,1012.79
1.464,0.04,-0.03,0.07,-8.18,-6.35,2.95,0.15,-1.32,-2.27,1012.79
1.465,0.04,-0.03,0.07,-5.72,-7.55,2.89,0.15,-1.32,-2.27,1012.79
1.485,0.04,-0.03,0.07,-5.72,-7.55,2.89,0.15,-1.32,-2.27,1012.80
1.499,0.24,0.07,-0.04,-5.72,-7.55,2.89,0.15,-1.32,-2.27,1012.80
1.501,0.24,0.07,-0.04,-5.72,-7.55,2.89,-0.33,-1.99,-3.19,1012.80
1.502,0.24,0.07,-0.04,-2.58,-7.11,2.16,-0.33,-1.99,-3.19,1012.80
1.539,0.65,0.08,-0.36,-2.58,-7.11,2.16,-0.33,-1.99,-3.19,1012.80
1.541,0.65,0.08,-0.36,-2.58,-7.11,2.16,-0.98,-2.75,-3.03,1012.80
1.542,0.65,0.08,-0.36,-2.58,-7.11,2.16,-0.98,-2.75,-3.03,1012.79
1.543,0.65,0.08,-0.36,2.59,-7.55,-0.87,-0.98,-2.75,-3.03,1012.79
1.579,1.40,0.00,-0.56,2.59,-7.55,-0.87,-0.98,-2.75,-3.03,1012.79
1.581,1.40,0.00,-0.56,2.59,-7.55,-0.87,-1.28,-2.37,-1.70,1012.79
1.582,1.40,0.00,-0.56,10.60,-8.54,-2.87,-1.28,-2.37,-1.70,1012.79
1.602,1.40,0.00,-0.56,10.60,-8.54,-2.87,-1.28,-2.37,-1.70,1012.79
1.618,1.35,-0.34,-0.45,10.60,-8.54,-2.87,-1.28,-2.37,-1.70,1012.79
1.622,1.35,-0.34,-0.45,10.60,-8.54,-2.87,-0.74,-0.87,-0.71,1012.79
1.624,1.35,-0.34,-0.45,10.30,-11.87,-1.89,-0.74,-0.87,-0.71,1012.79
1.658,1.99,2.31,-0.84,10.30,-11.87,-1.89,-0.74,-0.87,-0.71,1012.79
1.661,1.99,2.31,-0.84,10.30,-11.87,-1.89,0.61,0.06,1.18,1012.79
1.664,1.99,2.31,-0.84,15.93,14.15,-5.44,0.61,0.06,1.18,1012.79
1.667,1.99,2.31,-0.84,15.93,14.15,-5.44,0.61,0.06,1.18,1012.79
1.698,-0.87,1.12,-0.44,15.93,14.15,-5.44,0.61,0.06,1.18,1012.79
1.7,-0.87,1.12,-0.44,15.93,14.15,-5.44,0.06,1.85,-1.12,1012.79
1.702,-0.87,1.12,-0.44,-11.78,2.25,-1.70,0.06,1.85,-1.12,1012.79
1.722,-0.87,1.12,-0.44,-11.78,2.25,-1.70,0.06,1.85,-1.12,1012.80
1.74,0.52,-0.32,-0.03,-11.78,2.25,-1.70,0.06,1.85,-1.12,1012.80
1.744,0.52,-0.32,-0.03,-11.78,2.25,-1.70,-0.19,-1.29,1.18,1012.80
1.746,0.52,-0.32,-0.03,1.60,-11.55,2.31,-0.19,-1.29,1.18,1012.80
1.775,1.62,1.87,-0.54,1.60,-11.55,2.31,-0.19,-1.29,1.18,1012.80
1.778,1.62,1.87,-0.54,1.60,-11.55,2.31,0.19,-1.45,0.75,1012.80
1.779,1.62,1.87,-0.54,12.02,9.89,-2.34,0.19,-1.45,0.75,1012.80
1.78,1.62,1.87,-0.54,12.02,9.89,-2.34,0.19,-1.45,0.75,1012.81
1.817,0.07,0.68,-0.31,12.02,9.89,-2.34,0.19,-1.45,0.75,1012.81
1.82,0.07,0.68,-0.31,12.02,9.89,-2.34,-0.02,0.94,-1.14,1012.81
1.821,0.07,0.68,-0.31,-2.81,-1.92,-0.26,-0.02,0.94,-1.14,1012.81
1.853,0.07,0.68,-0.31,-2.81,-1.92,-0.26,-0.02,0.94,-1.14,1012.80
1.856,0.28,0.96,-0.37,-2.81,-1.92,-0.26,-0.02,0.94,-1.14,1012.80
1.857,0.28,0.96,-0.37,-2.81,-1.92,-0.26,-0.03,0.04,-0.65,1012.80
1.859,0.28,0.96,-0.37,-0.50,0.71,-0.81,-0.03,0.04,-0.65,1012.80
1.896,0.43,0.90,-0.31,-0.50,0.71,-0.81,-0.03,0.04,-0.65,1012.80
1.9,0.43,0.90,-0.31,-0.50,0.71,-0.81,-0.14,-0.36,-0.59,1012.80
1.902,0.43,0.90,-0.31,1.21,0.05,-0.23,-0.14,-0.36,-0.59,1012.80
1.904,0.43,0.90,-0.31,1.21,0.05,-0.23,-0.14,-0.36,-0.59,1012.80
1.945,0.22,0.95,-0.34,1.21,0.05,-0.23,-0.14,-0.36,-0.59,1012.80
1.948,0.22,0.95,-0.34,1.21,0.05,-0.23,-0.11,0.31,-0.83,1012.80
1.951,0.22,0.95,-0.34,-0.59,0.47,-0.57,-0.11,0.31,-0.83,1012.80
1.969,0.22,0.95,-0.34,-0.59,0.47,-0.57,-0.11,0.31,-0.83,1012.79
1.977,0.04,0.87,-0.26,-0.59,0.47,-0.57,-0.11,0.31,-0.83,1012.79
1.979,0.04,0.87,-0.26,-0.59,0.47,-0.57,-0.18,0.15,-0.75,1012.79
1.98,0.04,0.87,-0.26,-2.11,-0.44,0.09,-0.18,0.15,-0.75,1012.79
2.016,0.12,0.92,-0.22,-2.11,-0.44,0.09,-0.18,0.15,-0.75,1012.79
2.018,0.12,0.92,-0.22,-2.11,-0.44,0.09,-0.12,-0.04,-0.44,1012.79
2.019,0.12,0.92,-0.22,-1.17,0.02,0.46,-0.12,-0.04,-0.44,1012.79
2.021,0.12,0.92,-0.22,-1.17,0.02,0.46,-0.12,-0.04,-0.44,1012.78
2.06,0.06,0.87,-0.18,-1.17,0.02,0.46,-0.12,-0.04,-0.44,1012.78
2.062,0.06,0.87,-0.18,-1.17,0.02,0.46,-0.03,0.05,-0.24,1012.78
2.063,0.06,0.87,-0.18,-1.62,-0.51,0.80,-0.03,0.05,-0.24,1012.78
2.082,0.06,0.87,-0.18,-1.62,-0.51,0.80,-0.03,0.05,-0.24,1012.78
2.095,0.08,0.88,-0.22,-1.62,-0.51,0.80,-0.03,0.05,-0.24,1012.78
2.098,0.08,0.88,-0.22,-1.62,-0.51,0.80,0.09,0.09,0.03,1012.78
2.102,0.08,0.88,-0.22,-1.40,-0.41,0.46,0.09,0.09,0.03,1012.78
2.137,0.01,1.03,-0.35,-1.40,-0.41,0.46,0.09,0.09,0.03,1012.78
2.139,0.01,1.03,-0.35,-1.40,-0.41,0.46,0.19,0.11,0.24,1012.78
2.139,0.01,1.03,-0.35,-2.13,1.14,-0.80,0.19,0.11,0.24,1012.78
2.167,0.01,1.03,-0.35,-2.13,1.14,-0.80,0.19,0.11,0.24,1012.79
2.175,0.08,1.09,-0.50,-2.13,1.14,-0.80,0.19,0.11,0.24,1012.79
2.176,0.08,1.09,-0.50,-2.13,1.14,-0.80,0.05,0.05,0.42,1012.79
2.177,0.08,1.09,-0.50,-1.63,1.67,-2.15,0.05,0.05,0.42,1012.79
2.202,0.08,1.09,-0.50,-1.63,1.67,-2.15,0.05,0.05,0.42,1012.79
2.212,0.60,1.32,-0.52,-1.63,1.67,-2.15,0.05,0.05,0.42,1012.79
2.214,0.60,1.32,-0.52,-1.63,1.67,-2.15,-0.30,-0.06,0.54,1012.79
2.216,0.60,1.32,-0.52,3.26,3.90,-2.47,-0.30,-0.06,0.54,1012.79
2.272,0.77,1.54,-0.25,3.26,3.90,-2.47,-0.30,-0.06,0.54,1012.79
2.273,0.77,1.54,-0.25,3.26,3.90,-2.47,-0.68,0.44,0.00,1012.79
2.274,0.77,1.54,-0.25,4.75,5.94,-0.04,-0.68,0.44,0.00,1012.79
2.275,0.77,1.54,-0.25,4.75,5.94,-0.04,-0.68,0.44,0.00,1012.79
2.289,0.04,1.61,-0.09,4.75,5.94,-0.04,-0.68,0.44,0.00,1012.79
2.29,0.04,1.61,-0.09,4.75,5.94,-0.04,-0.81,0.44,-0.84,1012.79
2.291,0.04,1.61,-0.09,-2.10,6.36,1.10,-0.81,0.44,-0.84,1012.79
2.321,0.04,1.61,-0.09,-2.10,6.36,1.10,-0.81,0.44,-0.84,1012.79
2.343,-0.47,1.11,-0.04,-2.10,6.36,1.10,-0.81,0.44,-0.84,1012.79
2.344,-0.47,1.11,-0.04,-2.10,6.36,1.10,-0.67,0.50,-0.52,1012.79
2.345,-0.47,1.11,-0.04,-6.80,1.28,1.33,-0.67,0.50,-0.52,1012.79
2.368,-0.02,1.34,-0.48,-6.80,1.28,1.33,-0.67,0.50,-0.52,1012.79
2.369,-0.02,1.34,-0.48,-6.80,1.28,1.33,-0.01,-0.20,1.48,1012.79
2.37,-0.02,1.34,-0.48,-2.90,3.66,-2.99,-0.01,-0.20,1.48,1012.79
2.381,-0.02,1.34,-0.48,-2.90,3.66,-2.99,-0.01,-0.20,1.48,1012.79
2.41,0.67,1.32,-0.29,-2.90,3.66,-2.99,-0.01,-0.20,1.48,1012.79
2.413,0.67,1.32,-0.29,-2.90,3.66,-2.99,0.33,-0.86,3.22,1012.79
2.415,0.67,1.32,-0.29,2.73,3.77,-0.85,0.33,-0.86,3.22,1012.79
2.451,0.67,1.32,-0.29,2.73,3.77,-0.85,0.33,-0.86,3.22,1012.77
2.453,0.60,1.25,-0.27,2.73,3.77,-0.85,0.33,-0.86,3.22,1012.77
2.453,0.60,1.25,-0.27,2.73,3.77,-0.85,0.64,0.63,3.10,1012.77
2.454,0.60,1.25,-0.27,0.87,3.70,-0.53,0.64,0.63,3.10,1012.77
2.491,0.33,1.08,-0.24,0.87,3.70,-0.53,0.64,0.63,3.10,1012.77
2.494,0.33,1.08,-0.24,0.87,3.70,-0.53,0.55,1.82,2.72,1012.77
2.496,0.33,1.08,-0.24,-2.73,2.58,-0.42,0.55,1.82,2.72,1012.77
2.501,0.33,1.08,-0.24,-2.73,2.58,-0.42,0.55,1.82,2.72,1012.76
2.541,0.33,1.08,-0.24,-4.40,0.83,-0.05,0.55,1.82,2.72,1012.76
2.543,0.24,0.84,-0.17,-4.40,0.83,-0.05,0.55,1.82,2.72,1012.76
2.545,0.24,0.84,-0.17,-4.40,0.83,-0.05,0.29,1.36,2.47,1012.76
2.581,0.24,0.84,-0.17,-4.40,0.83,-0.05,0.29,1.36,2.47,1012.75
2.583,0.23,0.62,-0.15,-4.40,0.83,-0.05,0.29,1.36,2.47,1012.75
2.585,0.23,0.62,-0.15,-4.40,0.83,-0.05,0.19,0.27,2.07,1012.75
2.586,0.23,0.62,-0.15,-4.96,-0.73,0.12,0.19,0.27,2.07,1012.75
2.606,0.29,0.52,-0.22,-4.96,-0.73,0.12,0.19,0.27,2.07,1012.75
2.607,0.29,0.52,-0.22,-4.96,-0.73,0.12,0.27,-0.61,1.45,1012.75
2.608,0.29,0.52,-0.22,-4.68,-1.24,-0.26,0.27,-0.61,1.45,1012.75
2.621,0.29,0.52,-0.22,-4.68,-1.24,-0.26,0.27,-0.61,1.45,1012.73
2.647,0.29,0.52,-0.22,-4.41,-2.21,0.66,0.27,-0.61,1.45,1012.73
2.65,0.32,0.39,-0.16,-4.41,-2.21,0.66,0.27,-0.61,1.45,1012.73
2.651,0.32,0.39,-0.16,-4.41,-2.21,0.66,0.24,-0.97,0.59,1012.73
2.686,0.32,0.39,-0.16,-4.41,-2.21,0.66,0.24,-0.97,0.59,1012.74
2.688,0.31,0.17,-0.15,-4.41,-2.21,0.66,0.24,-0.97,0.59,1012.74
2.69,0.31,0.17,-0.15,-4.41,-2.21,0.66,0.26,-0.87,-0.43,1012.74
2.691,0.31,0.17,-0.15,-4.19,-4.38,1.06,0.26,-0.87,-0.43,1012.74
2.743,0.13,0.09,-0.21,-4.19,-4.38,1.06,0.26,-0.87,-0.43,1012.74
2.747,0.13,0.09,-0.21,-4.19,-4.38,1.06,0.29,-1.28,-1.51,1012.74
2.749,0.13,0.09,-0.21,-5.36,-5.51,0.90,0.29,-1.28,-1.51,1012.74
2.751,0.13,0.09,-0.21,-5.36,-5.51,0.90,0.29,-1.28,-1.51,1012.75
2.791,0.42,0.09,-0.21,-5.36,-5.51,0.90,0.29,-1.28,-1.51,1012.75
2.795,0.42,0.09,-0.21,-5.36,-5.51,0.90,0.24,-1.94,-2.20,1012.75
2.796,0.42,0.09,-0.21,-1.66,-5.87,1.40,0.24,-1.94,-2.20,1012.75
2.801,0.42,0.09,-0.21,-1.66,-5.87,1.40,0.24,-1.94,-2.20,1012.76
2.805,0.72,0.19,-0.18,-1.66,-5.87,1.40,0.24,-1.94,-2.20,1012.76
2.808,0.72,0.19,-0.18,-1.66,-5.87,1.40,0.01,-1.32,-2.76,1012.76
2.811,0.72,0.19,-0.18,2.15,-5.38,1.98,0.01,-1.32,-2.76,1012.76
2.844,0.92,0.19,-0.10,2.15,-5.38,1.98,0.01,-1.32,-2.76,1012.76
2.847,0.92,0.19,-0.10,2.15,-5.38,1.98,-0.45,-0.40,-2.59,1012.76
2.849,0.92,0.19,-0.10,4.86,-5.80,2.57,-0.45,-0.40,-2.59,1012.76
2.863,0.92,0.19,-0.10,4.86,-5.80,2.57,-0.45,-0.40,-2.59,1012.76
2.882,0.89,0.10,-0.16,4.86,-5.80,2.57,-0.45,-0.40,-2.59,1012.76
2.884,0.89,0.10,-0.16,4.86,-5.80,2.57,-0.72,-0.61,-1.51,1012.76
2.885,0.89,0.10,-0.16,5.11,-6.97,1.84,-0.72,-0.61,-1.51,1012.76
2.92,0.89,0.10,-0.16,5.11,-6.97,1.84,-0.72,-0.61,-1.51,1012.76
2.922,2.16,1.14,-1.27,5.11,-6.97,1.84,-0.72,-0.61,-1.51,1012.76
2.923,2.16,1.14,-1.27,5.11,-6.97,1.84,0.25,-1.27,0.95,1012.76
2.924,2.16,1.14,-1.27,17.10,3.33,-8.59,0.25,-1.27,0.95,1012.76
2.963,0.30,1.57,-0.24,17.10,3.33,-8.59,0.25,-1.27,0.95,1012.76
2.968,0.30,1.57,-0.24,17.10,3.33,-8.59,-0.05,1.50,-0.20,1012.76
2.97,0.30,1.57,-0.24,-1.21,7.39,1.19,-0.05,1.50,-0.20,1012.76
2.981,0.30,1.57,-0.24,-1.21,7.39,1.19,-0.05,1.50,-0.20,1012.76
3.001,-0.57,-0.25,-0.25,-1.21,7.39,1.19,-0.05,1.50,-0.20,1012.76
3.003,-0.57,-0.25,-0.25,-1.21,7.39,1.19,0.01,0.78,-0.65,1012.76
3.003,-0.57,-0.25,-0.25,-9.56,-10.37,1.01,0.01,0.78,-0.65,1012.76
3.044,-0.57,-0.25,-0.25,11.59,4.54,-0.16,0.01,0.78,-0.65,1012.76
3.048,1.62,1.26,-0.39,11.59,4.54,-0.16,0.01,0.78,-0.65,1012.76
3.05,1.62,1.26,-0.39,11.59,4.54,-0.16,0.10,-1.39,1.12,1012.76
3.051,1.62,1.26,-0.39,11.59,4.54,-0.16,0.10,-1.39,1.12,1012.76
3.08,0.40,0.98,-0.49,11.59,4.54,-0.16,0.10,-1.39,1.12,1012.76
3.083,0.40,0.98,-0.49,11.59,4.54,-0.16,-0.11,-0.07,-0.65,1012.76
3.084,0.40,0.98,-0.49,-0.11,1.69,-1.11,-0.11,-0.07,-0.65,1012.76
3.101,0.40,0.98,-0.49,-0.11,1.69,-1.11,-0.11,-0.07,-0.65,1012.75
3.12,0.55,0.82,-0.45,-0.11,1.69,-1.11,-0.11,-0.07,-0.65,1012.75
3.123,0.55,0.82,-0.45,-0.11,1.69,-1.11,-0.12,0.28,-0.64,1012.75
3.124,0.55,0.82,-0.45,1.49,-0.01,-0.85,-0.12,0.28,-0.64,1012.75
3.161,0.39,0.89,-0.44,1.49,-0.01,-0.85,-0.12,0.28,-0.64,1012.75
3.165,0.39,0.89,-0.44,1.49,-0.01,-0.85,-0.24,0.05,-0.83,1012.75
3.167,0.39,0.89,-0.44,0.18,0.52,-0.78,-0.24,0.05,-0.83,1012.75
3.169,0.39,0.89,-0.44,0.18,0.52,-0.78,-0.24,0.05,-0.83,1012.75
3.198,0.37,0.84,-0.40,0.18,0.52,-0.78,-0.24,0.05,-0.83,1012.75
3.201,0.37,0.84,-0.40,0.18,0.52,-0.78,-0.35,0.10,-0.83,1012.75
3.202,0.37,0.84,-0.40,0.21,-0.16,-0.52,-0.35,0.10,-0.83,1012.75
3.22,0.37,0.84,-0.40,0.21,-0.16,-0.52,-0.35,0.10,-0.83,1012.76
3.244,0.21,0.89,-0.34,0.21,-0.16,-0.52,-0.35,0.10,-0.83,1012.76
3.248,0.21,0.89,-0.34,0.21,-0.16,-0.52,-0.39,0.29,-0.94,1012.76
3.249,0.21,0.89,-0.34,-1.07,0.21,-0.14,-0.39,0.29,-0.94,1012.76
3.279,0.10,0.85,-0.34,-1.07,0.21,-0.14,-0.39,0.29,-0.94,1012.76
3.281,0.10,0.85,-0.34,-1.07,0.21,-0.14,-0.42,0.04,-0.78,1012.76
3.282,0.10,0.85,-0.34,-1.07,0.21,-0.14,-0.42,0.04,-0.78,1012.76
3.282,0.10,0.85,-0.34,-1.82,-0.36,-0.25,-0.42,0.04,-0.78,1012.76
3.319,0.15,0.84,-0.23,-1.82,-0.36,-0.25,-0.42,0.04,-0.78,1012.76
3.321,0.15,0.84,-0.23,-1.82,-0.36,-0.25,-0.42,-0.02,-0.55,1012.76
3.322,0.15,0.84,-0.23,-1.13,-0.52,0.66,-0.42,-0.02,-0.55,1012.76
3.344,0.15,0.84,-0.23,-1.13,-0.52,0.66,-0.42,-0.02,-0.55,1012.75
3.357,0.02,0.93,-0.18,-1.13,-0.52,0.66,-0.42,-0.02,-0.55,1012.75
3.358,0.02,0.93,-0.18,-1.13,-0.52,0.66,-0.28,0.11,-0.37,1012.75
3.36,0.02,0.93,-0.18,-2.31,0.27,1.06,-0.28,0.11,-0.37,1012.75
3.397,0.03,0.93,-0.22,-2.31,0.27,1.06,-0.28,0.11,-0.37,1012.75
3.399,0.03,0.93,-0.22,-2.31,0.27,1.06,-0.11,0.01,-0.03,1012.75
3.4,0.03,0.93,-0.22,-2.12,0.26,0.61,-0.11,0.01,-0.03,1012.75
3.401,0.03,0.93,-0.22,-2.12,0.26,0.61,-0.11,0.01,-0.03,1012.75
3.438,0.20,1.00,-0.36,-2.12,0.26,0.61,-0.11,0.01,-0.03,1012.75
3.44,0.20,1.00,-0.36,-2.12,0.26,0.61,-0.02,-0.10,0.25,1012.75
3.442,0.20,1.00,-0.36,-0.53,0.90,-0.76,-0.02,-0.10,0.25,1012.75
3.486,0.20,1.00,-0.36,-0.53,0.90,-0.76,-0.02,-0.10,0.25,1012.75
3.488,0.22,1.07,-0.45,-0.53,0.90,-0.76,-0.02,-0.10,0.25,1012.75
3.488,0.22,1.07,-0.45,-0.53,0.90,-0.76,-0.07,0.17,0.26,1012.75
3.489,0.22,1.07,-0.45,-0.42,1.55,-1.69,-0.07,0.17,0.26,1012.75
3.515,0.40,1.23,-0.43,-0.42,1.55,-1.69,-0.07,0.17,0.26,1012.75
3.517,0.40,1.23,-0.43,-0.42,1.55,-1.69,-0.23,0.25,0.28,1012.75
3.519,0.40,1.23,-0.43,1.15,3.07,-1.49,-0.23,0.25,0.28,1012.75
3.52,0.40,1.23,-0.43,1.15,3.07,-1.49,-0.23,0.25,0.28,1012.75
3.554,0.59,1.69,-0.28,1.15,3.07,-1.49,-0.23,0.25,0.28,1012.75
3.557,0.59,1.69,-0.28,1.15,3.07,-1.49,-0.35,0.65,0.07,1012.75
3.558,0.59,1.69,-0.28,2.95,7.46,-0.29,-0.35,0.65,0.07,1012.75
3.589,0.59,1.69,-0.28,2.95,7.46,-0.29,-0.35,0.65,0.07,1012.75
3.597,0.59,1.69,-0.28,-6.06,6.30,1.00,-0.35,0.65,0.07,1012.75
3.601,-0.34,1.59,-0.12,-6.06,6.30,1.00,-0.35,0.65,0.07,1012.75
3.603,-0.34,1.59,-0.12,-6.06,6.30,1.00,-0.55,0.74,-0.39,1012.75
3.638,-0.44,1.18,-0.30,-6.06,6.30,1.00,-0.55,0.74,-0.39,1012.75
3.643,-0.44,1.18,-0.30,-6.06,6.30,1.00,-0.25,0.36,0.59,1012.75
3.644,-0.44,1.18,-0.30,-7.16,2.25,-0.90,-0.25,0.36,0.59,1012.75
3.645,-0.44,1.18,-0.30,-7.16,2.25,-0.90,-0.25,0.36,0.59,1012.75
3.677,0.90,1.49,-0.49,-7.16,2.25,-0.90,-0.25,0.36,0.59,1012.75
3.68,0.90,1.49,-0.49,-7.16,2.25,-0.90,0.47,-0.72,2.58,1012.75
3.681,0.90,1.49,-0.49,5.00,5.56,-2.40,0.47,-0.72,2.58,1012.75
3.699,0.90,1.49,-0.49,5.00,5.56,-2.40,0.47,-0.72,2.58,1012.74
3.713,0.84,1.27,-0.21,5.00,5.56,-2.40,0.47,-0.72,2.58,1012.74
3.716,0.84,1.27,-0.21,3.38,3.88,0.49,0.47,-0.72,2.58,1012.74
3.718,0.84,1.27,-0.21,3.38,3.88,0.49,0.73,0.27,2.76,1012.74
3.762,0.57,1.18,-0.30,3.38,3.88,0.49,0.73,0.27,2.76,1012.74
3.766,0.57,1.18,-0.30,3.38,3.88,0.49,0.83,1.89,2.48,1012.74
3.768,0.57,1.18,-0.30,-0.19,3.61,-0.51,0.83,1.89,2.48,1012.74
3.77,0.57,1.18,-0.30,-0.19,3.61,-0.51,0.83,1.89,2.48,1012.73
3.798,0.29,1.03,-0.24,-0.19,3.61,-0.51,0.83,1.89,2.48,1012.73
3.8,0.29,1.03,-0.24,-0.19,3.61,-0.51,0.59,1.53,2.33,1012.73
3.801,0.29,1.03,-0.24,-3.79,2.66,-0.14,0.59,1.53,2.33,1012.73
3.818,0.29,1.03,-0.24,-3.79,2.66,-0.14,0.59,1.53,2.33,1012.74
3.836,0.30,0.64,-0.16,-3.79,2.66,-0.14,0.59,1.53,2.33,1012.74
3.839,0.30,0.64,-0.16,-4.21,-0.46,0.76,0.59,1.53,2.33,1012.74
3.841,0.30,0.64,-0.16,-4.21,-0.46,0.76,0.36,0.14,2.16,1012.74
3.883,0.31,0.50,-0.14,-4.21,-0.46,0.76,0.36,0.14,2.16,1012.74
3.885,0.31,0.50,-0.14,-4.21,-0.46,0.76,0.46,-0.60,1.43,1012.74
3.887,0.31,0.50,-0.14,-4.31,-1.40,1.16,0.46,-0.60,1.43,1012.74
3.888,0.31,0.50,-0.14,-4.31,-1.40,1.16,0.46,-0.60,1.43,1012.74
3.911,0.27,0.46,-0.15,-4.31,-1.40,1.16,0.46,-0.60,1.43,1012.74
3.913,0.27,0.46,-0.15,-4.31,-1.40,1.16,0.44,-0.38,0.45,1012.74
3.915,0.27,0.46,-0.15,-4.76,-1.62,1.31,0.44,-0.38,0.45,1012.74
3.94,0.27,0.46,-0.15,-4.76,-1.62,1.31,0.44,-0.38,0.45,1012.72
3.957,0.12,0.22,-0.13,-4.76,-1.62,1.31,0.44,-0.38,0.45,1012.72
3.959,0.12,0.22,-0.13,-4.76,-1.62,1.31,0.28,-0.25,-0.56,1012.72
3.96,0.12,0.22,-0.13,-5.94,-4.03,1.63,0.28,-0.25,-0.56,1012.72
4.013,0.12,0.22,-0.13,-5.39,-5.27,1.41,0.28,-0.25,-0.56,1012.72
4.016,0.12,0.12,-0.17,-5.39,-5.27,1.41,0.28,-0.25,-0.56,1012.72
4.018,0.12,0.12,-0.17,-5.39,-5.27,1.41,0.22,-0.72,-1.43,1012.72
4.019,0.12,0.12,-0.17,-5.39,-5.27,1.41,0.22,-0.72,-1.43,1012.70
4.029,0.31,0.12,-0.20,-5.39,-5.27,1.41,0.22,-0.72,-1.43,1012.70
4.034,0.31,0.12,-0.20,-5.39,-5.27,1.41,0.14,-1.22,-2.13,1012.70
4.036,0.31,0.12,-0.20,-2.76,-5.62,1.46,0.14,-1.22,-2.13,1012.70
4.059,0.31,0.12,-0.20,-2.76,-5.62,1.46,0.14,-1.22,-2.13,1012.69
4.084,0.55,0.16,-0.25,-2.76,-5.62,1.46,0.14,-1.22,-2.13,1012.69
4.087,0.55,0.16,-0.25,-2.76,-5.62,1.46,0.08,-1.03,-2.54,1012.69
4.089,0.55,0.16,-0.25,0.41,-5.66,1.19,0.08,-1.03,-2.54,1012.69
4.122,0.71,0.17,-0.22,0.41,-5.66,1.19,0.08,-1.03,-2.54,1012.69
4.133,0.71,0.17,-0.22,0.41,-5.66,1.19,0.04,-0.44,-2.49,1012.69
4.135,0.71,0.17,-0.22,2.72,-5.90,1.55,0.04,-0.44,-2.49,1012.69
4.136,0.71,0.17,-0.22,2.72,-5.90,1.55,0.04,-0.44,-2.49,1012.69
4.158,0.72,0.28,-0.28,2.72,-5.90,1.55,0.04,-0.44,-2.49,1012.69
4.167,0.72,0.28,-0.28,2.72,-5.90,1.55,0.04,-0.66,-1.70,1012.69
4.168,0.72,0.28,-0.28,3.42,-5.01,1.02,0.04,-0.66,-1.70,1012.69
4.188,0.72,0.28,-0.28,3.42,-5.01,1.02,0.04,-0.66,-1.70,1012.71
4.19,1.03,0.03,-0.23,3.42,-5.01,1.02,0.04,-0.66,-1.70,1012.71
4.191,1.03,0.03,-0.23,3.42,-5.01,1.02,0.13,-1.29,-0.68,1012.71
4.191,1.03,0.03,-0.23,6.71,-7.41,1.73,0.13,-1.29,-0.68,1012.71
4.247,1.03,0.03,-0.23,18.30,13.02,-8.30,0.13,-1.29,-0.68,1012.71
4.251,2.28,2.11,-1.29,18.30,13.02,-8.30,0.13,-1.29,-0.68,1012.71
4.252,2.28,2.11,-1.29,18.30,13.02,-8.30,1.00,0.59,0.83,1012.71
4.252,2.28,2.11,-1.29,18.30,13.02,-8.30,1.00,0.59,0.83,1012.71
4.281,-0.82,0.74,-0.27,18.30,13.02,-8.30,1.00,0.59,0.83,1012.71
4.285,-0.82,0.74,-0.27,-11.86,-0.61,1.17,1.00,0.59,0.83,1012.71
4.287,-0.82,0.74,-0.27,-11.86,-0.61,1.17,-0.29,2.47,-1.09,1012.71
4.298,-0.82,0.74,-0.27,-11.86,-0.61,1.17,-0.29,2.47,-1.09,1012.71
4.304,0.28,0.07,-0.46,-11.86,-0.61,1.17,-0.29,2.47,-1.09,1012.71
4.305,0.28,0.07,-0.46,-11.86,-0.61,1.17,-0.13,-1.11,0.54,1012.71
4.306,0.28,0.07,-0.46,-1.06,-6.99,-0.50,-0.13,-1.11,0.54,1012.71
4.346,1.73,1.44,-0.57,-1.06,-6.99,-0.50,-0.13,-1.11,0.54,1012.71
4.35,1.73,1.44,-0.57,-1.06,-6.99,-0.50,-0.37,-1.55,0.92,1012.71
4.351,1.73,1.44,-0.57,12.89,6.36,-1.47,-0.37,-1.55,0.92,1012.71
4.358,1.73,1.44,-0.57,12.89,6.36,-1.47,-0.37,-1.55,0.92,1012.71
4.384,0.05,0.65,-0.31,12.89,6.36,-1.47,-0.37,-1.55,0.92,1012.71
4.388,0.05,0.65,-0.31,12.89,6.36,-1.47,-0.44,0.69,-1.09,1012.71
4.39,0.05,0.65,-0.31,-3.32,-1.54,0.87,-0.44,0.69,-1.09,1012.71
4.418,0.05,0.65,-0.31,-3.32,-1.54,0.87,-0.44,0.69,-1.09,1012.70
4.424,0.65,0.96,-0.42,-3.32,-1.54,0.87,-0.44,0.69,-1.09,1012.70
4.425,0.65,0.96,-0.42,-3.32,-1.54,0.87,-0.25,-0.26,-0.55,1012.70
4.425,0.65,0.96,-0.42,2.74,1.35,-0.28,-0.25,-0.26,-0.55,1012.70
4.466,0.65,0.96,-0.42,0.75,-0.27,0.62,-0.25,-0.26,-0.55,1012.70
4.473,0.42,0.81,-0.32,0.75,-0.27,0.62,-0.25,-0.26,-0.55,1012.70
4.476,0.42,0.81,-0.32,0.75,-0.27,0.62,-0.32,-0.19,-0.90,1012.70
4.502,0.42,0.81,-0.32,0.75,-0.27,0.62,-0.32,-0.19,-0.90,1012.70
4.505,0.31,0.93,-0.46,0.75,-0.27,0.62,-0.32,-0.19,-0.90,1012.70
4.507,0.31,0.93,-0.46,0.75,-0.27,0.62,-0.22,0.31,-1.01,1012.70
4.508,0.31,0.93,-0.46,-0.05,0.69,-0.81,-0.22,0.31,-1.01,1012.70
4.541,0.31,0.93,-0.46,-0.05,0.69,-0.81,-0.22,0.31,-1.01,1012.69
4.55,0.31,0.93,-0.46,-2.48,-0.54,-0.31,-0.22,0.31,-1.01,1012.69
4.552,0.02,0.82,-0.39,-2.48,-0.54,-0.31,-0.22,0.31,-1.01,1012.69
4.553,0.02,0.82,-0.39,-2.48,-0.54,-0.31,-0.28,0.46,-1.09,1012.69
4.582,0.01,0.86,-0.35,-2.48,-0.54,-0.31,-0.28,0.46,-1.09,1012.69
4.584,0.01,0.86,-0.35,-2.48,-0.54,-0.31,-0.28,0.19,-0.75,1012.69
4.585,0.01,0.86,-0.35,-2.36,-0.29,-0.07,-0.28,0.19,-0.75,1012.69
4.598,0.01,0.86,-0.35,-2.36,-0.29,-0.07,-0.28,0.19,-0.75,1012.68
4.622,-0.03,0.85,-0.26,-2.36,-0.29,-0.07,-0.28,0.19,-0.75,1012.68
4.626,-0.03,0.85,-0.26,-2.36,-0.29,-0.07,-0.21,0.20,-0.44,1012.68
4.628,-0.03,0.85,-0.26,-2.60,-0.37,0.79,-0.21,0.20,-0.44,1012.68
4.659,-0.03,0.85,-0.26,-2.60,-0.37,0.79,-0.21,0.20,-0.44,1012.68
4.666,-0.12,0.90,-0.26,-2.60,-0.37,0.79,-0.21,0.20,-0.44,1012.68
4.667,-0.12,0.90,-0.26,-2.60,-0.37,0.79,-0.04,0.23,-0.04,1012.68
4.668,-0.12,0.90,-0.26,-3.41,0.08,0.73,-0.04,0.23,-0.04,1012.68
4.704,-0.00,0.91,-0.36,-3.41,0.08,0.73,-0.04,0.23,-0.04,1012.68
4.706,-0.00,0.91,-0.36,-3.41,0.08,0.73,0.08,0.04,0.43,1012.68
4.707,-0.00,0.91,-0.36,-2.37,0.21,-0.27,0.08,0.04,0.43,1012.68
4.717,-0.00,0.91,-0.36,-2.37,0.21,-0.27,0.08,0.04,0.43,1012.68
4.74,0.32,0.97,-0.43,-2.37,0.21,-0.27,0.08,0.04,0.43,1012.68
4.741,0.32,0.97,-0.43,-2.37,0.21,-0.27,0.01,-0.02,0.70,1012.68
4.742,0.32,0.97,-0.43,0.52,0.86,-0.86,0.01,-0.02,0.70,1012.68
4.78,0.32,0.97,-0.43,0.52,0.86,-0.86,0.01,-0.02,0.70,1012.69
4.785,0.47,1.06,-0.52,0.52,0.86,-0.86,0.01,-0.02,0.70,1012.69
4.787,0.47,1.06,-0.52,0.52,0.86,-0.86,-0.18,0.10,0.62,1012.69
4.789,0.47,1.06,-0.52,1.82,1.71,-1.88,-0.18,0.10,0.62,1012.69
4.821,0.50,1.30,-0.44,1.82,1.71,-1.88,-0.18,0.10,0.62,1012.69
4.825,0.50,1.30,-0.44,1.82,1.71,-1.88,-0.46,0.04,0.32,1012.69
4.827,0.50,1.30,-0.44,1.97,3.97,-1.15,-0.46,0.04,0.32,1012.69
4.839,0.50,1.30,-0.44,1.97,3.97,-1.15,-0.46,0.04,0.32,1012.68
4.86,0.50,1.30,-0.44,1.61,6.85,0.83,-0.46,0.04,0.32,1012.68
4.864,0.47,1.61,-0.21,1.61,6.85,0.83,-0.46,0.04,0.32,1012.68
4.865,0.47,1.61,-0.21,1.61,6.85,0.83,-0.71,-0.01,0.05,1012.68
4.897,-0.08,1.46,-0.05,1.61,6.85,0.83,-0.71,-0.01,0.05,1012.68
4.899,-0.08,1.46,-0.05,1.61,6.85,0.83,-0.73,0.33,-0.12,1012.68
4.9,-0.08,1.46,-0.05,1.61,6.85,0.83,-0.73,0.33,-0.12,1012.66
4.901,-0.08,1.46,-0.05,-3.77,5.17,2.01,-0.73,0.33,-0.12,1012.66
4.943,-0.35,1.28,-0.30,-3.77,5.17,2.01,-0.73,0.33,-0.12,1012.66
4.947,-0.35,1.28,-0.30,-3.77,5.17,2.01,-0.24,0.66,0.50,1012.66
4.949,-0.35,1.28,-0.30,-6.50,3.42,-0.60,-0.24,0.66,0.50,1012.66
4.957,-0.35,1.28,-0.30,-6.50,3.42,-0.60,-0.24,0.66,0.50,1012.65
4.984,0.68,1.45,-0.41,-6.50,3.42,-0.60,-0.24,0.66,0.50,1012.65
4.986,0.68,1.45,-0.41,-6.50,3.42,-0.60,0.33,-0.04,2.29,1012.65
4.987,0.68,1.45,-0.41,2.74,5.36,-1.50,0.33,-0.04,2.29,1012.65
5.017,0.75,1.42,-0.32,2.74,5.36,-1.50,0.33,-0.04,2.29,1012.65
5.02,0.75,1.42,-0.32,2.74,5.36,-1.50,0.71,0.74,2.79,1012.65
5.022,0.75,1.42,-0.32,2.39,5.51,-0.45,0.71,0.74,2.79,1012.65
5.023,0.75,1.42,-0.32,2.39,5.51,-0.45,0.71,0.74,2.79,1012.65
5.058,0.44,1.22,-0.37,2.39,5.51,-0.45,0.71,0.74,2.79,1012.65
5.064,0.44,1.22,-0.37,2.39,5.51,-0.45,0.61,1.85,2.65,1012.65
5.065,0.44,1.22,-0.37,-1.66,4.13,-1.22,0.61,1.85,2.65,1012.65
5.093,0.44,1.22,-0.37,-1.66,4.13,-1.22,0.61,1.85,2.65,1012.66
5.099,0.57,0.88,-0.22,-1.66,4.13,-1.22,0.61,1.85,2.65,1012.66
5.102,0.57,0.88,-0.22,-1.66,4.13,-1.22,0.29,1.45,2.60,1012.66
5.104,0.57,0.88,-0.22,-1.33,1.41,-0.03,0.29,1.45,2.60,1012.66
5.139,0.56,0.59,-0.19,-1.33,1.41,-0.03,0.29,1.45,2.60,1012.66
5.142,0.56,0.59,-0.19,-1.33,1.41,-0.03,0.31,0.86,2.11,1012.66
5.143,0.56,0.59,-0.19,-1.99,-0.76,0.15,0.31,0.86,2.11,1012.66
5.145,0.56,0.59,-0.19,-1.99,-0.76,0.15,0.31,0.86,2.11,1012.66
5.175,0.25,0.44,-0.17,-1.99,-0.76,0.15,0.31,0.86,2.11,1012.66
5.177,0.25,0.44,-0.17,-1.99,-0.76,0.15,0.46,0.39,1.28,1012.66
5.177,0.25,0.44,-0.17,-5.27,-1.77,0.37,0.46,0.39,1.28,1012.66
5.197,0.25,0.44,-0.17,-5.27,-1.77,0.37,0.46,0.39,1.28,1012.66
5.215,0.19,0.33,-0.16,-5.27,-1.77,0.37,0.46,0.39,1.28,1012.66
5.219,0.19,0.33,-0.16,-5.27,-1.77,0.37,0.56,-0.36,0.66,1012.66
5.221,0.19,0.33,-0.16,-5.92,-2.57,0.63,0.56,-0.36,0.66,1012.66
5.265,0.27,0.17,-0.08,-5.92,-2.57,0.63,0.56,-0.36,0.66,1012.66
5.269,0.27,0.17,-0.08,-5.92,-2.57,0.63,0.58,-0.70,-0.21,1012.66
5.271,0.27,0.17,-0.08,-4.90,-4.08,1.74,0.58,-0.70,-0.21,1012.66
5.271,0.27,0.17,-0.08,-4.90,-4.08,1.74,0.58,-0.70,-0.21,1012.65
5.307,0.10,0.12,-0.15,-4.90,-4.08,1.74,0.58,-0.70,-0.21,1012.65
5.31,0.10,0.12,-0.15,-4.90,-4.08,1.74,0.67,-0.48,-1.32,1012.65
5.314,0.10,0.12,-0.15,-6.11,-4.82,1.33,0.67,-0.48,-1.32,1012.65
5.317,0.10,0.12,-0.15,-6.11,-4.82,1.33,0.67,-0.48,-1.32,1012.65
5.332,0.14,0.05,-0.25,-6.11,-4.82,1.33,0.67,-0.48,-1.32,1012.65
5.333,0.14,0.05,-0.25,-6.11,-4.82,1.33,0.64,-1.12,-2.11,1012.65
5.335,0.14,0.05,-0.25,-5.05,-5.82,0.86,0.64,-1.12,-2.11,1012.65
5.372,0.57,0.09,-0.20,-5.05,-5.82,0.86,0.64,-1.12,-2.11,1012.65
5.376,0.57,0.09,-0.20,-5.05,-5.82,0.86,0.60,-1.04,-2.66,1012.65
5.378,0.57,0.09,-0.20,0.07,-5.93,1.66,0.60,-1.04,-2.66,1012.65
5.379,0.57,0.09,-0.20,0.07,-5.93,1.66,0.60,-1.04,-2.66,1012.62
5.411,0.73,0.08,-0.18,0.07,-5.93,1.66,0.60,-1.04,-2.66,1012.62
5.413,0.73,0.08,-0.18,0.07,-5.93,1.66,0.65,-0.08,-3.02,1012.62
5.413,0.73,0.08,-0.18,2.41,-6.45,2.00,0.65,-0.08,-3.02,1012.62
5.437,0.73,0.08,-0.18,2.41,-6.45,2.00,0.65,-0.08,-3.02,1012.62
5.458,0.94,0.28,-0.15,2.41,-6.45,2.00,0.65,-0.08,-3.02,1012.62
5.461,0.94,0.28,-0.15,2.41,-6.45,2.00,0.58,0.53,-2.46,1012.62
5.462,0.94,0.28,-0.15,5.02,-4.67,2.41,0.58,0.53,-2.46,1012.62
5.499,1.24,-0.08,-0.31,5.02,-4.67,2.41,0.58,0.53,-2.46,1012.62
5.504,1.24,-0.08,-0.31,5.02,-4.67,2.41,0.48,-0.12,-1.16,1012.62
5.507,1.24,-0.08,-0.31,8.22,-8.17,0.97,0.48,-0.12,-1.16,1012.62
5.51,1.24,-0.08,-0.31,8.22,-8.17,0.97,0.48,-0.12,-1.16,1012.62
5.531,2.30,2.51,-0.39,8.22,-8.17,0.97,0.48,-0.12,-1.16,1012.62
5.532,2.30,2.51,-0.39,8.22,-8.17,0.97,0.80,1.12,0.67,1012.62
5.533,2.30,2.51,-0.39,17.95,17.11,0.21,0.80,1.12,0.67,1012.62
5.564,2.30,2.51,-0.39,17.95,17.11,0.21,0.80,1.12,0.67,1012.62
5.573,2.30,2.51,-0.39,-20.25,-1.52,-3.83,0.80,1.12,0.67,1012.62
5.576,-1.66,0.63,-0.79,-20.25,-1.52,-3.83,0.80,1.12,0.67,1012.62
5.578,-1.66,0.63,-0.79,-20.25,-1.52,-3.83,0.11,1.00,-1.58,1012.62
5.608,1.32,0.20,-0.24,-20.25,-1.52,-3.83,0.11,1.00,-1.58,1012.62
5.61,1.32,0.20,-0.24,-20.25,-1.52,-3.83,0.10,-1.59,1.38,1012.62
5.61,1.32,0.20,-0.24,8.63,-5.45,1.82,0.10,-1.59,1.38,1012.62
5.616,1.32,0.20,-0.24,8.63,-5.45,1.82,0.10,-1.59,1.38,1012.62
5.655,1.13,1.20,-0.78,8.63,-5.45,1.82,0.10,-1.59,1.38,1012.62
5.656,1.13,1.20,-0.78,8.63,-5.45,1.82,0.14,-0.18,-0.16,1012.62
5.657,1.13,1.20,-0.78,6.76,4.29,-3.36,0.14,-0.18,-0.16,1012.62
5.676,1.13,1.20,-0.78,6.76,4.29,-3.36,0.14,-0.18,-0.16,1012.64
5.688,-0.13,0.73,-0.53,6.76,4.29,-3.36,0.14,-0.18,-0.16,1012.64
5.69,-0.13,0.73,-0.53,6.76,4.29,-3.36,-0.21,0.35,-1.05,1012.64
5.691,-0.13,0.73,-0.53,-5.25,-0.50,-1.00,-0.21,0.35,-1.05,1012.64
5.728,0.88,0.94,-0.45,-5.25,-0.50,-1.00,-0.21,0.35,-1.05,1012.64
5.732,0.88,0.94,-0.45,-5.25,-0.50,-1.00,-0.35,-0.72,-0.26,1012.64
5.734,0.88,0.94,-0.45,4.79,1.45,-0.15,-0.35,-0.72,-0.26,1012.64
5.736,0.88,0.94,-0.45,4.79,1.45,-0.15,-0.35,-0.72,-0.26,1012.64
5.782,0.34,0.79,-0.39,4.79,1.45,-0.15,-0.35,-0.72,-0.26,1012.64
5.785,0.34,0.79,-0.39,4.79,1.45,-0.15,-0.38,0.09,-0.92,1012.64
5.787,0.34,0.79,-0.39,-0.23,-0.21,0.30,-0.38,0.09,-0.92,1012.64
5.806,0.34,0.79,-0.39,-0.23,-0.21,0.30,-0.38,0.09,-0.92,1012.63
5.809,0.31,0.88,-0.40,-0.23,-0.21,0.30,-0.38,0.09,-0.92,1012.63
5.812,0.31,0.88,-0.40,-0.23,-0.21,0.30,-0.30,0.18,-0.86,1012.63
5.813,0.31,0.88,-0.40,-0.28,0.47,0.07,-0.30,0.18,-0.86,1012.63
5.858,0.21,0.83,-0.45,-0.28,0.47,0.07,-0.30,0.18,-0.86,1012.63
5.862,0.21,0.83,-0.45,-0.28,0.47,0.07,-0.31,0.04,-0.86,1012.63
5.863,0.21,0.83,-0.45,-0.98,-0.15,-0.56,-0.31,0.04,-0.86,1012.63
5.865,0.21,0.83,-0.45,-0.98,-0.15,-0.56,-0.31,0.04,-0.86,1012.62
5.913,0.11,0.86,-0.41,-0.98,-0.15,-0.56,-0.31,0.04,-0.86,1012.62
5.917,0.11,0.86,-0.41,-0.98,-0.15,-0.56,-0.36,0.20,-0.77,1012.62
5.918,0.11,0.86,-0.41,-1.74,-0.00,-0.27,-0.36,0.20,-0.77,1012.62
5.919,0.11,0.86,-0.41,-1.74,-0.00,-0.27,-0.36,0.20,-0.77,1012.64
5.925,-0.06,0.87,-0.31,-1.74,-0.00,-0.27,-0.36,0.20,-0.77,1012.64
5.926,-0.06,0.87,-0.31,-1.74,-0.00,-0.27,-0.34,0.20,-0.57,1012.64
5.927,-0.06,0.87,-0.31,-3.11,-0.05,0.55,-0.34,0.20,-0.57,1012.64
5.965,-0.07,0.89,-0.30,-3.11,-0.05,0.55,-0.34,0.20,-0.57,1012.64
5.969,-0.07,0.89,-0.30,-3.11,-0.05,0.55,-0.20,0.16,-0.14,1012.64
5.97,-0.07,0.89,-0.30,-3.19,0.15,0.52,-0.20,0.16,-0.14,1012.64
5.977,-0.07,0.89,-0.30,-3.19,0.15,0.52,-0.20,0.16,-0.14,1012.64
6.003,0.05,0.89,-0.25,-3.19,0.15,0.52,-0.20,0.16,-0.14,1012.64
6.005,0.05,0.89,-0.25,-3.19,0.15,0.52,-0.08,0.24,0.33,1012.64
6.006,0.05,0.89,-0.25,-2.07,0.14,1.03,-0.08,0.24,0.33,1012.64
6.036,0.05,0.89,-0.25,-2.07,0.14,1.03,-0.08,0.24,0.33,1012.63
6.045,0.18,0.88,-0.32,-2.07,0.14,1.03,-0.08,0.24,0.33,1012.63
6.047,0.18,0.88,-0.32,-2.07,0.14,1.03,0.09,0.42,0.63,1012.63
6.049,0.18,0.88,-0.32,-1.08,0.11,0.23,0.09,0.42,0.63,1012.63
6.084,0.18,0.88,-0.32,-0.84,0.54,-0.63,0.09,0.42,0.63,1012.63
6.085,0.24,0.91,-0.41,-0.84,0.54,-0.63,0.09,0.42,0.63,1012.63
6.086,0.24,0.91,-0.41,-0.84,0.54,-0.63,0.14,0.39,0.75,1012.63
6.106,0.24,0.91,-0.41,-0.84,0.54,-0.63,0.14,0.39,0.75,1012.63
6.123,0.44,1.00,-0.46,-0.84,0.54,-0.63,0.14,0.39,0.75,1012.63
6.125,0.44,1.00,-0.46,-0.84,0.54,-0.63,0.06,0.22,0.85,1012.63
6.127,0.44,1.00,-0.46,0.85,1.44,-1.11,0.06,0.22,0.85,1012.63
6.171,0.44,1.00,-0.46,0.85,1.44,-1.11,0.06,0.22,0.85,1012.64
6.173,0.55,1.10,-0.57,0.85,1.44,-1.11,0.06,0.22,0.85,1012.64
6.174,0.55,1.10,-0.57,0.85,1.44,-1.11,-0.01,0.25,0.65,1012.64
6.175,0.55,1.10,-0.57,1.61,2.51,-2.20,-0.01,0.25,0.65,1012.64
6.202,0.58,1.44,-0.35,1.61,2.51,-2.20,-0.01,0.25,0.65,1012.64
6.204,0.58,1.44,-0.35,1.61,2.51,-2.20,-0.15,0.61,0.33,1012.64
6.204,0.58,1.44,-0.35,1.73,5.77,-0.17,-0.15,0.61,0.33,1012.64
6.216,0.58,1.44,-0.35,1.73,5.77,-0.17,-0.15,0.61,0.33,1012.65
6.242,0.36,1.55,-0.13,1.73,5.77,-0.17,-0.15,0.61,0.33,1012.65
6.244,0.36,1.55,-0.13,1.73,5.77,-0.17,-0.44,0.60,0.06,1012.65
6.245,0.36,1.55,-0.13,-0.53,6.69,1.74,-0.44,0.60,0.06,1012.65
6.279,0.36,1.55,-0.13,-0.53,6.69,1.74,-0.44,0.60,0.06,1012.66
6.284,0.36,1.55,-0.13,-2.75,4.91,1.46,-0.44,0.60,0.06,1012.66
6.286,0.13,1.38,-0.14,-2.75,4.91,1.46,-0.44,0.60,0.06,1012.66
6.288,0.13,1.38,-0.14,-2.75,4.91,1.46,-0.59,-0.14,0.14,1012.66
6.321,0.09,0.92,-0.37,-2.75,4.91,1.46,-0.59,-0.14,0.14,1012.66
6.323,0.09,0.92,-0.37,-2.75,4.91,1.46,-0.18,0.78,0.60,1012.66
6.324,0.09,0.92,-0.37,-3.34,0.48,-0.95,-0.18,0.78,0.60,1012.66
6.337,0.09,0.92,-0.37,-3.34,0.48,-0.95,-0.18,0.78,0.60,1012.66
6.364,0.55,1.14,-0.44,-3.34,0.48,-0.95,-0.18,0.78,0.60,1012.66
6.366,0.55,1.14,-0.44,-3.34,0.48,-0.95,0.64,0.30,1.85,1012.66
6.368,0.55,1.14,-0.44,0.49,2.98,-1.46,0.64,0.30,1.85,1012.66
6.408,0.55,1.14,-0.44,0.49,2.98,-1.46,0.64,0.30,1.85,1012.65
6.411,1.16,1.16,-0.36,0.49,2.98,-1.46,0.64,0.30,1.85,1012.65
6.413,1.16,1.16,-0.36,0.49,2.98,-1.46,1.28,0.72,2.51,1012.65
6.414,1.16,1.16,-0.36,5.55,3.79,-0.49,1.28,0.72,2.51,1012.65
6.439,0.77,0.96,-0.39,5.55,3.79,-0.49,1.28,0.72,2.51,1012.65
6.44,0.77,0.96,-0.39,5.55,3.79,-0.49,1.52,2.88,1.96,1012.65
6.441,0.77,0.96,-0.39,0.76,2.46,-1.03,1.52,2.88,1.96,1012.65
6.457,0.77,0.96,-0.39,0.76,2.46,-1.03,1.52,2.88,1.96,1012.65
6.508,0.62,0.73,-0.21,0.76,2.46,-1.03,1.52,2.88,1.96,1012.65
6.511,0.62,0.73,-0.21,0.76,2.46,-1.03,1.43,3.38,1.78,1012.65
6.512,0.62,0.73,-0.21,-1.47,0.83,0.13,1.43,3.38,1.78,1012.65
6.517,0.62,0.73,-0.21,-1.47,0.83,0.13,1.43,3.38,1.78,1012.64
6.518,0.54,0.47,0.04,-1.47,0.83,0.13,1.43,3.38,1.78,1012.64
6.519,0.54,0.47,0.04,-1.47,0.83,0.13,1.43,2.66,1.52,1012.64
6.52,0.54,0.47,0.04,-2.82,-1.15,2.08,1.43,2.66,1.52,1012.64
6.563,0.54,0.47,0.04,-2.74,-0.79,2.10,1.43,2.66,1.52,1012.64
6.568,0.58,0.45,0.08,-2.74,-0.79,2.10,1.43,2.66,1.52,1012.64
6.571,0.58,0.45,0.08,-2.74,-0.79,2.10,1.79,2.16,1.11,1012.64
6.574,0.58,0.45,0.08,-2.74,-0.79,2.10,1.79,2.16,1.11,1012.62
6.598,0.44,0.59,0.03,-2.74,-0.79,2.10,1.79,2.16,1.11,1012.62
6.601,0.44,0.59,0.03,-2.74,-0.79,2.10,2.07,1.84,0.59,1012.62
6.603,0.44,0.59,0.03,-4.22,0.85,1.36,2.07,1.84,0.59,1012.62
6.635,0.45,0.56,0.03,-4.22,0.85,1.36,2.07,1.84,0.59,1012.62
6.638,0.45,0.56,0.03,-4.22,0.85,1.36,2.06,1.08,0.19,1012.62
6.64,0.45,0.56,0.03,-4.18,0.69,1.39,2.06,1.08,0.19,1012.62
6.642,0.45,0.56,0.03,-4.18,0.69,1.39,2.06,1.08,0.19,1012.61
6.683,0.50,0.46,0.07,-4.18,0.69,1.39,2.06,1.08,0.19,1012.61
6.686,0.50,0.46,0.07,-4.18,0.69,1.39,2.01,0.63,-0.54,1012.61
6.688,0.50,0.46,0.07,-3.48,-0.41,1.91,2.01,0.63,-0.54,1012.61
6.695,0.50,0.46,0.07,-3.48,-0.41,1.91,2.01,0.63,-0.54,1012.62
6.718,0.43,0.40,0.03,-3.48,-0.41,1.91,2.01,0.63,-0.54,1012.62
6.723,0.43,0.40,0.03,-3.48,-0.41,1.91,1.97,0.67,-1.52,1012.62
6.724,0.43,0.40,0.03,-3.92,-1.34,1.65,1.97,0.67,-1.52,1012.62
6.756,0.31,0.34,-0.01,-3.92,-1.34,1.65,1.97,0.67,-1.52,1012.62
6.758,0.31,0.34,-0.01,-3.92,-1.34,1.65,1.94,0.33,-2.43,1012.62
6.759,0.31,0.34,-0.01,-3.92,-1.34,1.65,1.94,0.33,-2.43,1012.63
6.76,0.31,0.34,-0.01,-4.46,-2.54,1.56,1.94,0.33,-2.43,1012.63
6.801,0.27,0.45,-0.06,-4.46,-2.54,1.56,1.94,0.33,-2.43,1012.63
6.804,0.27,0.45,-0.06,-4.46,-2.54,1.56,1.87,-0.24,-3.07,1012.63
6.806,0.27,0.45,-0.06,-3.96,-2.10,1.65,1.87,-0.24,-3.07,1012.63
6.815,0.27,0.45,-0.06,-3.96,-2.10,1.65,1.87,-0.24,-3.07,1012.62
6.835,0.47,0.46,-0.16,-3.96,-2.10,1.65,1.87,-0.24,-3.07,1012.62
6.839,0.47,0.46,-0.16,-3.96,-2.10,1.65,1.80,-0.67,-3.45,1012.62
6.842,0.47,0.46,-0.16,-1.02,-2.69,1.26,1.80,-0.67,-3.45,1012.62
6.888,0.67,0.54,-0.15,-1.02,-2.69,1.26,1.80,-0.67,-3.45,1012.62
6.891,0.67,0.54,-0.15,-1.02,-2.69,1.26,1.81,0.54,-3.82,1012.62
6.892,0.67,0.54,-0.15,1.98,-2.40,1.72,1.81,0.54,-3.82,1012.62
6.892,0.67,0.54,-0.15,1.98,-2.40,1.72,1.81,0.54,-3.82,1012.61
6.941,0.30,0.64,-0.22,1.98,-2.40,1.72,1.81,0.54,-3.82,1012.61
6.943,0.30,0.64,-0.22,1.98,-2.40,1.72,1.71,1.29,-3.65,1012.61
6.944,0.30,0.64,-0.22,-0.69,-1.73,1.39,1.71,1.29,-3.65,1012.61
6.945,0.30,0.64,-0.22,-0.69,-1.73,1.39,1.71,1.29,-3.65,1012.61
6.952,0.46,0.58,-0.11,-0.69,-1.73,1.39,1.71,1.29,-3.65,1012.61
6.954,0.46,0.58,-0.11,-0.69,-1.73,1.39,1.10,-0.14,-2.46,1012.61
6.954,0.46,0.58,-0.11,1.67,-2.42,2.80,1.10,-0.14,-2.46,1012.61
6.992,0.83,0.16,-0.10,1.67,-2.42,2.80,1.10,-0.14,-2.46,1012.61
6.994,0.83,0.16,-0.10,1.67,-2.42,2.80,0.35,-1.62,-1.22,1012.61
6.996,0.83,0.16,-0.10,5.86,-6.48,3.12,0.35,-1.62,-1.22,1012.61
6.998,0.83,0.16,-0.10,5.86,-6.48,3.12,0.35,-1.62,-1.22,1012.61
7.033,1.04,0.11,-0.21,5.86,-6.48,3.12,0.35,-1.62,-1.22,1012.61
7.037,1.04,0.11,-0.21,5.86,-6.48,3.12,0.16,-0.51,-0.56,1012.61
7.039,1.04,0.11,-0.21,8.04,-6.89,2.10,0.16,-0.51,-0.56,1012.61
7.055,1.04,0.11,-0.21,8.04,-6.89,2.10,0.16,-0.51,-0.56,1012.61
7.078,1.02,3.26,-1.29,8.04,-6.89,2.10,0.16,-0.51,-0.56,1012.61
7.079,1.02,3.26,-1.29,8.04,-6.89,2.10,0.53,0.45,1.12,1012.61
7.081,1.02,3.26,-1.29,7.25,23.75,-8.28,0.53,0.45,1.12,1012.61
7.125,-0.83,-1.53,-0.32,7.25,23.75,-8.28,0.53,0.45,1.12,1012.61
7.127,-0.83,-1.53,-0.32,7.25,23.75,-8.28,-0.62,1.31,-0.17,1012.61
7.128,-0.83,-1.53,-0.32,-10.86,-22.89,0.91,-0.62,1.31,-0.17,1012.61
7.13,-0.83,-1.53,-0.32,-10.86,-22.89,0.91,-0.62,1.31,-0.17,1012.61
7.162,1.49,1.95,-0.68,-10.86,-22.89,0.91,-0.62,1.31,-0.17,1012.61
7.166,1.49,1.95,-0.68,-10.86,-22.89,0.91,0.26,-1.24,1.55,1012.61
7.168,1.49,1.95,-0.68,11.42,11.23,-2.40,0.26,-1.24,1.55,1012.61
7.173,1.49,1.95,-0.68,11.42,11.23,-2.40,0.26,-1.24,1.55,1012.61
7.193,0.63,0.69,-0.21,11.42,11.23,-2.40,0.26,-1.24,1.55,1012.61
7.197,0.63,0.69,-0.21,11.42,11.23,-2.40,-0.36,0.14,-0.24,1012.61
7.199,0.63,0.69,-0.21,3.03,-1.16,2.09,-0.36,0.14,-0.24,1012.61
7.229,0.05,0.86,-0.52,3.03,-1.16,2.09,-0.36,0.14,-0.24,1012.61
7.233,0.05,0.86,-0.52,3.03,-1.16,2.09,0.16,0.70,-0.65,1012.61
7.235,0.05,0.86,-0.52,-2.52,0.41,-0.97,0.16,0.70,-0.65,1012.61
7.237,0.05,0.86,-0.52,-2.52,0.41,-0.97,0.16,0.70,-0.65,1012.62
7.278,0.50,0.88,-0.45,-2.52,0.41,-0.97,0.16,0.70,-0.65,1012.62
7.281,0.50,0.88,-0.45,-2.52,0.41,-0.97,-0.00,0.20,-0.34,1012.62
7.282,0.50,0.88,-0.45,1.85,0.56,-0.31,-0.00,0.20,-0.34,1012.62
7.293,0.50,0.88,-0.45,1.85,0.56,-0.31,-0.00,0.20,-0.34,1012.63
7.323,0.23,0.86,-0.53,1.85,0.56,-0.31,-0.00,0.20,-0.34,1012.63
7.325,0.23,0.86,-0.53,1.85,0.56,-0.31,0.00,0.23,-0.67,1012.63
7.327,0.23,0.86,-0.53,-0.58,0.25,-1.16,0.00,0.23,-0.67,1012.63
7.353,0.15,0.88,-0.51,-0.58,0.25,-1.16,0.00,0.23,-0.67,1012.63
7.354,0.15,0.88,-0.51,-0.58,0.25,-1.16,-0.14,0.38,-0.66,1012.63
7.354,0.15,0.88,-0.51,-1.13,0.35,-1.02,-0.14,0.38,-0.66,1012.63
7.355,0.15,0.88,-0.51,-1.13,0.35,-1.02,-0.14,0.38,-0.66,1012.62
7.386,-0.01,0.83,-0.46,-1.13,0.35,-1.02,-0.14,0.38,-0.66,1012.62
7.387,-0.01,0.83,-0.46,-1.13,0.35,-1.02,-0.27,0.14,-0.55,1012.62
7.387,-0.01,0.83,-0.46,-2.57,-0.18,-0.58,-0.27,0.14,-0.55,1012.62
7.413,-0.01,0.83,-0.46,-2.57,-0.18,-0.58,-0.27,0.14,-0.55,1012.62
7.425,0.15,0.89,-0.31,-2.57,-0.18,-0.58,-0.27,0.14,-0.55,1012.62
7.426,0.15,0.89,-0.31,-2.57,-0.18,-0.58,-0.25,-0.13,-0.23,1012.62
7.427,0.15,0.89,-0.31,-0.88,0.32,0.76,-0.25,-0.13,-0.23,1012.62
7.465,0.11,0.91,-0.33,-0.88,0.32,0.76,-0.25,-0.13,-0.23,1012.62
7.466,0.11,0.91,-0.33,-0.88,0.32,0.76,-0.05,0.21,-0.14,1012.62
7.466,0.11,0.91,-0.33,-1.20,0.46,0.54,-0.05,0.21,-0.14,1012.62
7.472,0.11,0.91,-0.33,-1.20,0.46,0.54,-0.05,0.21,-0.14,1012.62
7.504,0.07,0.92,-0.40,-1.20,0.46,0.54,-0.05,0.21,-0.14,1012.62
7.506,0.07,0.92,-0.40,-1.20,0.46,0.54,0.09,0.51,0.02,1012.62
7.506,0.07,0.92,-0.40,-1.68,0.54,-0.16,0.09,0.51,0.02,1012.62
7.532,0.07,0.92,-0.40,-1.68,0.54,-0.16,0.09,0.51,0.02,1012.62
7.545,0.05,0.90,-0.37,-1.68,0.54,-0.16,0.09,0.51,0.02,1012.62
7.546,0.05,0.90,-0.37,-1.68,0.54,-0.16,0.14,0.66,0.21,1012.62
7.548,0.05,0.90,-0.37,-1.99,0.41,0.14,0.14,0.66,0.21,1012.62
7.585,0.25,0.89,-0.37,-1.99,0.41,0.14,0.14,0.66,0.21,1012.62
7.587,0.25,0.89,-0.37,-1.99,0.41,0.14,0.26,0.62,0.43,1012.62
7.589,0.25,0.89,-0.37,-0.24,0.40,0.19,0.26,0.62,0.43,1012.62
7.593,0.25,0.89,-0.37,-0.24,0.40,0.19,0.26,0.62,0.43,1012.61
7.624,0.13,0.89,-0.41,-0.24,0.40,0.19,0.26,0.62,0.43,1012.61
7.628,0.13,0.89,-0.41,-0.24,0.40,0.19,0.38,0.83,0.44,1012.61
7.63,0.13,0.89,-0.41,-1.70,0.52,-0.26,0.38,0.83,0.44,1012.61
7.669,0.13,0.89,-0.41,-1.70,0.52,-0.26,0.38,0.83,0.44,1012.61
7.671,0.26,0.86,-0.60,-1.70,0.52,-0.26,0.38,0.83,0.44,1012.61
7.672,0.26,0.86,-0.60,-1.70,0.52,-0.26,0.58,0.93,0.59,1012.61
7.672,0.26,0.86,-0.60,-0.73,0.39,-2.02,0.58,0.93,0.59,1012.61
7.709,0.42,1.06,-0.33,-0.73,0.39,-2.02,0.58,0.93,0.59,1012.61
7.715,0.42,1.06,-0.33,-0.73,0.39,-2.02,0.60,1.46,0.50,1012.61
7.716,0.42,1.06,-0.33,0.46,2.40,0.69,0.60,1.46,0.50,1012.61
7.717,0.42,1.06,-0.33,0.46,2.40,0.69,0.60,1.46,0.50,1012.61
7.743,0.25,1.18,-0.39,0.46,2.40,0.69,0.60,1.46,0.50,1012.61
7.745,0.25,1.18,-0.39,0.46,2.40,0.69,0.36,0.90,0.45,1012.61
7.746,0.25,1.18,-0.39,-1.51,3.68,0.03,0.36,0.90,0.45,1012.61
7.789,0.25,1.18,-0.39,-1.51,3.68,0.03,0.36,0.90,0.45,1012.61
7.791,0.73,1.27,-0.55,-1.51,3.68,0.03,0.36,0.90,0.45,1012.61
7.792,0.73,1.27,-0.55,-1.51,3.68,0.03,0.21,0.31,0.62,1012.61
7.792,0.73,1.27,-0.55,2.97,4.64,-1.51,0.21,0.31,0.62,1012.61
7.821,0.47,1.44,-0.48,2.97,4.64,-1.51,0.21,0.31,0.62,1012.61
7.823,0.47,1.44,-0.48,2.97,4.64,-1.51,0.13,1.25,-0.16,1012.61
7.824,0.47,1.44,-0.48,0.23,6.14,-0.91,0.13,1.25,-0.16,1012.61
7.834,0.47,1.44,-0.48,0.23,6.14,-0.91,0.13,1.25,-0.16,1012.60
7.862,0.10,1.29,-0.34,0.23,6.14,-0.91,0.13,1.25,-0.16,1012.60
7.866,0.10,1.29,-0.34,0.23,6.14,-0.91,0.27,2.11,-0.69,1012.60
7.869,0.10,1.29,-0.34,-3.37,4.49,0.15,0.27,2.11,-0.69,1012.60
7.898,0.10,1.29,-0.34,-3.37,4.49,0.15,0.27,2.11,-0.69,1012.60
7.902,0.34,0.99,-0.38,-3.37,4.49,0.15,0.27,2.11,-0.69,1012.60
7.907,0.34,0.99,-0.38,-3.37,4.49,0.15,0.67,3.15,-0.25,1012.60
7.91,0.34,0.99,-0.38,-1.31,1.58,-0.62,0.67,3.15,-0.25,1012.60
7.94,0.57,1.08,-0.31,-1.31,1.58,-0.62,0.67,3.15,-0.25,1012.60
7.943,0.57,1.08,-0.31,-1.31,1.58,-0.62,1.40,2.97,0.60,1012.60
7.944,0.57,1.08,-0.31,0.39,2.70,-0.08,1.40,2.97,0.60,1012.60
7.952,0.57,1.08,-0.31,0.39,2.70,-0.08,1.40,2.97,0.60,1012.60
7.981,0.74,1.15,-0.47,0.39,2.70,-0.08,1.40,2.97,0.60,1012.60
7.983,0.74,1.15,-0.47,0.39,2.70,-0.08,2.13,3.41,0.74,1012.60
7.984,0.74,1.15,-0.47,1.42,3.77,-1.70,2.13,3.41,0.74,1012.60
8.019,0.74,1.15,-0.47,1.42,3.77,-1.70,2.13,3.41,0.74,1012.60
8.022,0.40,1.01,-0.29,1.42,3.77,-1.70,2.13,3.41,0.74,1012.60
8.023,0.40,1.01,-0.29,1.42,3.77,-1.70,2.18,4.27,0.52,1012.60
8.026,0.40,1.01,-0.29,-2.50,2.74,-0.31,2.18,4.27,0.52,1012.60
8.06,0.66,0.96,0.05,-2.50,2.74,-0.31,2.18,4.27,0.52,1012.60
8.063,0.66,0.96,0.05,-2.50,2.74,-0.31,1.91,3.65,0.95,1012.60
8.066,0.66,0.96,0.05,-0.52,2.57,2.55,1.91,3.65,0.95,1012.60
8.091,0.66,0.96,0.05,-0.52,2.57,2.55,1.91,3.65,0.95,1012.59
8.129,0.62,0.79,0.10,-0.52,2.57,2.55,1.91,3.65,0.95,1012.59
8.135,0.62,0.79,0.10,-0.52,2.57,2.55,1.72,2.93,0.75,1012.59
8.137,0.62,0.79,0.10,-1.33,1.29,2.59,1.72,2.93,0.75,1012.59
8.139,0.62,0.79,0.10,-1.33,1.29,2.59,1.72,2.93,0.75,1012.58
8.141,0.59,0.79,0.04,-1.33,1.29,2.59,1.72,2.93,0.75,1012.58
8.143,0.59,0.79,0.04,-1.33,1.29,2.59,1.65,2.00,0.71,1012.58
8.145,0.59,0.79,0.04,-1.90,1.55,1.73,1.65,2.00,0.71,1012.58
8.178,0.65,0.70,0.06,-1.90,1.55,1.73,1.65,2.00,0.71,1012.58
8.183,0.65,0.70,0.06,-1.90,1.55,1.73,1.43,0.86,0.43,1012.58
8.186,0.65,0.70,0.06,-1.40,0.85,1.98,1.43,0.86,0.43,1012.58
8.192,0.65,0.70,0.06,-1.40,0.85,1.98,1.43,0.86,0.43,1012.56
8.218,0.64,0.43,-0.03,-1.40,0.85,1.98,1.43,0.86,0.43,1012.56
8.221,0.64,0.43,-0.03,-1.40,0.85,1.98,1.04,0.32,-0.18,1012.56
8.222,0.64,0.43,-0.03,-1.44,-1.79,1.23,1.04,0.32,-0.18,1012.56
8.253,0.64,0.43,-0.03,-1.44,-1.79,1.23,1.04,0.32,-0.18,1012.54
8.257,0.41,0.21,-0.11,-1.44,-1.79,1.23,1.04,0.32,-0.18,1012.54
8.26,0.41,0.21,-0.11,-1.44,-1.79,1.23,0.70,-0.19,-1.08,1012.54
8.262,0.41,0.21,-0.11,-3.43,-4.18,0.68,0.70,-0.19,-1.08,1012.54
8.296,0.32,0.08,-0.08,-3.43,-4.18,0.68,0.70,-0.19,-1.08,1012.54
8.3,0.32,0.08,-0.08,-3.43,-4.18,0.68,0.36,-0.62,-1.92,1012.54
8.302,0.32,0.08,-0.08,-3.73,-5.82,1.28,0.36,-0.62,-1.92,1012.54
8.312,0.32,0.08,-0.08,-3.73,-5.82,1.28,0.36,-0.62,-1.92,1012.54
8.336,0.35,0.05,-0.18,-3.73,-5.82,1.28,0.36,-0.62,-1.92,1012.54
8.34,0.35,0.05,-0.18,-3.73,-5.82,1.28,0.11,-1.07,-2.66,1012.54
8.342,0.35,0.05,-0.18,-2.55,-6.68,0.54,0.11,-1.07,-2.66,1012.54
8.38,0.35,0.05,-0.18,-2.55,-6.68,0.54,0.11,-1.07,-2.66,1012.54
8.383,0.62,0.13,-0.05,-2.55,-6.68,0.54,0.11,-1.07,-2.66,1012.54
8.385,0.62,0.13,-0.05,-2.55,-6.68,0.54,0.01,-0.60,-3.18,1012.54
8.386,0.62,0.13,-0.05,1.14,-6.43,1.94,0.01,-0.60,-3.18,1012.54
8.413,0.52,0.23,-0.07,1.14,-6.43,1.94,0.01,-0.60,-3.18,1012.54
8.415,0.52,0.23,-0.07,1.14,-6.43,1.94,0.08,0.30,-3.31,1012.54
8.417,0.52,0.23,-0.07,1.12,-5.92,1.62,0.08,0.30,-3.31,1012.54
8.433,0.52,0.23,-0.07,1.12,-5.92,1.62,0.08,0.30,-3.31,1012.54
8.453,0.60,0.48,-0.21,1.12,-5.92,1.62,0.08,0.30,-3.31,1012.54
8.455,0.60,0.48,-0.21,1.12,-5.92,1.62,0.07,0.03,-2.70,1012.54
8.455,0.60,0.48,-0.21,2.79,-3.82,0.29,0.07,0.03,-2.70,1012.54
8.493,0.58,0.64,-0.15,2.79,-3.82,0.29,0.07,0.03,-2.70,1012.54
8.495,0.58,0.64,-0.15,2.79,-3.82,0.29,-0.22,-0.16,-1.93,1012.54
8.497,0.58,0.64,-0.15,2.79,-3.82,0.29,-0.22,-0.16,-1.93,1012.54
8.498,0.58,0.64,-0.15,3.15,-2.43,0.79,-0.22,-0.16,-1.93,1012.54
8.533,0.31,0.67,-0.16,3.15,-2.43,0.79,-0.22,-0.16,-1.93,1012.54
8.537,0.31,0.67,-0.16,3.15,-2.43,0.79,-0.59,-0.58,-1.29,1012.54
8.54,0.31,0.67,-0.16,1.00,-2.25,0.54,-0.59,-0.58,-1.29,1012.54
8.553,0.31,0.67,-0.16,1.00,-2.25,0.54,-0.59,-0.58,-1.29,1012.54
8.573,0.54,2.45,-0.68,1.00,-2.25,0.54,-0.59,-0.58,-1.29,1012.54
8.575,0.54,2.45,-0.68,1.00,-2.25,0.54,-0.16,-1.55,-0.31,1012.54
8.576,0.54,2.45,-0.68,3.42,14.87,-4.44,-0.16,-1.55,-0.31,1012.54
8.611,0.69,1.39,-0.73,3.42,14.87,-4.44,-0.16,-1.55,-0.31,1012.54
8.613,0.69,1.39,-0.73,3.42,14.87,-4.44,-0.91,-0.68,0.88,1012.54
8.614,0.69,1.39,-0.73,3.42,14.87,-4.44,-0.91,-0.68,0.88,1012.54
8.615,0.69,1.39,-0.73,4.54,4.43,-5.05,-0.91,-0.68,0.88,1012.54
8.652,-0.39,-0.82,0.37,4.54,4.43,-5.05,-0.91,-0.68,0.88,1012.54
8.656,-0.39,-0.82,0.37,4.54,4.43,-5.05,-1.28,1.47,-0.89,1012.54
8.658,-0.39,-0.82,0.37,-5.68,-17.11,5.04,-1.28,1.47,-0.89,1012.54
8.672,-0.39,-0.82,0.37,-5.68,-17.11,5.04,-1.28,1.47,-0.89,1012.54
8.704,0.28,1.69,-0.63,-5.68,-17.11,5.04,-1.28,1.47,-0.89,1012.54
8.708,0.28,1.69,-0.63,-5.68,-17.11,5.04,0.16,0.30,0.08,1012.54
8.71,0.28,1.69,-0.63,0.86,7.35,-4.63,0.16,0.30,0.08,1012.54
8.739,0.28,1.69,-0.63,1.35,4.06,1.25,0.16,0.30,0.08,1012.54
8.744,0.34,1.36,0.01,1.35,4.06,1.25,0.16,0.30,0.08,1012.54
8.747,0.34,1.36,0.01,1.35,4.06,1.25,-1.00,-0.45,0.18,1012.54
8.75,0.34,1.36,0.01,1.35,4.06,1.25,-1.00,-0.45,0.18,1012.55
8.785,-0.10,0.58,-0.21,1.35,4.06,1.25,-1.00,-0.45,0.18,1012.55
8.789,-0.10,0.58,-0.21,1.35,4.06,1.25,-0.84,-0.28,-0.10,1012.55
8.791,-0.10,0.58,-0.21,-2.89,-3.57,-1.13,-0.84,-0.28,-0.10,1012.55
8.791,-0.10,0.58,-0.21,-2.89,-3.57,-1.13,-0.84,-0.28,-0.10,1012.55
8.82,0.35,1.12,-0.21,-2.89,-3.57,-1.13,-0.84,-0.28,-0.10,1012.55
8.825,0.35,1.12,-0.21,-2.89,-3.57,-1.13,-0.83,-0.56,0.34,1012.55
8.828,0.35,1.12,-0.21,1.43,1.62,-1.42,-0.83,-0.56,0.34,1012.55
8.849,0.26,0.92,0.02,1.43,1.62,-1.42,-0.83,-0.56,0.34,1012.55
8.853,0.26,0.92,0.02,1.43,1.62,-1.42,-1.05,0.07,0.13,1012.55
8.855,0.26,0.92,0.02,0.43,-0.32,0.43,-1.05,0.07,0.13,1012.55
8.857,0.26,0.92,0.02,0.43,-0.32,0.43,-1.05,0.07,0.13,1012.55
8.903,-0.09,0.98,0.02,0.43,-0.32,0.43,-1.05,0.07,0.13,1012.55
8.905,-0.09,0.98,0.02,0.43,-0.32,0.43,-0.86,0.29,0.03,1012.55
8.907,-0.09,0.98,0.02,-2.91,0.27,0.07,-0.86,0.29,0.03,1012.55
8.911,-0.09,0.98,0.02,-2.91,0.27,0.07,-0.86,0.29,0.03,1012.55
8.927,0.16,0.98,0.12,-2.91,0.27,0.07,-0.86,0.29,0.03,1012.55
8.928,0.16,0.98,0.12,-2.91,0.27,0.07,-0.79,-0.36,0.37,1012.55
8.929,0.16,0.98,0.12,-0.61,0.31,0.79,-0.79,-0.36,0.37,1012.55
8.973,0.38,0.85,0.32,-0.61,0.31,0.79,-0.79,-0.36,0.37,1012.55
8.976,0.38,0.85,0.32,-0.61,0.31,0.79,-0.52,-0.17,0.43,1012.55
8.977,0.38,0.85,0.32,-0.61,0.31,0.79,-0.52,-0.17,0.43,1012.55
8.979,0.38,0.85,0.32,1.38,-0.89,2.58,-0.52,-0.17,0.43,1012.55
9.011,0.24,0.98,0.21,1.38,-0.89,2.58,-0.52,-0.17,0.43,1012.55
9.012,0.24,0.98,0.21,1.38,-0.89,2.58,-0.02,0.45,0.23,1012.55
9.014,0.24,0.98,0.21,-0.06,0.40,1.42,-0.02,0.45,0.23,1012.55
9.031,0.24,0.98,0.21,-0.06,0.40,1.42,-0.02,0.45,0.23,1012.55
9.046,0.20,0.98,0.05,-0.06,0.40,1.42,-0.02,0.45,0.23,1012.55
9.047,0.20,0.98,0.05,-0.06,0.40,1.42,0.16,0.37,0.23,1012.55
9.048,0.20,0.98,0.05,-0.51,0.41,-0.17,0.16,0.37,0.23,1012.55
9.086,0.30,0.95,0.02,-0.51,0.41,-0.17,0.16,0.37,0.23,1012.55
9.089,0.30,0.95,0.02,-0.51,0.41,-0.17,0.16,0.16,0.24,1012.55
9.091,0.30,0.95,0.02,0.41,0.10,-0.43,0.16,0.16,0.24,1012.55
9.092,0.30,0.95,0.02,0.41,0.10,-0.43,0.16,0.16,0.24,1012.55
9.125,0.25,0.97,-0.00,0.41,0.10,-0.43,0.16,0.16,0.24,1012.55
9.126,0.25,0.97,-0.00,0.41,0.10,-0.43,0.13,0.32,0.16,1012.55
9.127,0.25,0.97,-0.00,-0.13,0.29,-0.59,0.13,0.32,0.16,1012.55
9.151,0.25,0.97,-0.00,-0.13,0.29,-0.59,0.13,0.32,0.16,1012.56
9.168,0.21,0.98,-0.01,-0.13,0.29,-0.59,0.13,0.32,0.16,1012.56
9.17,0.21,0.98,-0.01,-0.13,0.29,-0.59,0.08,0.36,0.14,1012.56
9.172,0.21,0.98,-0.01,-0.57,0.42,-0.69,0.08,0.36,0.14,1012.56
9.208,0.26,0.95,0.01,-0.57,0.42,-0.69,0.08,0.36,0.14,1012.56
9.209,0.26,0.95,0.01,-0.57,0.42,-0.69,0.01,0.18,0.17,1012.56
9.21,0.26,0.95,0.01,-0.16,0.13,-0.44,0.01,0.18,0.17,1012.56
9.211,0.26,0.95,0.01,-0.16,0.13,-0.44,0.01,0.18,0.17,1012.56
9.245,0.30,0.95,0.05,-0.16,0.13,-0.44,0.01,0.18,0.17,1012.56
9.25,0.30,0.95,0.05,-0.16,0.13,-0.44,-0.01,0.10,0.14,1012.56
9.252,0.30,0.95,0.05,0.18,0.21,-0.07,-0.01,0.10,0.14,1012.56
9.277,0.30,0.95,0.05,0.18,0.21,-0.07,-0.01,0.10,0.14,1012.55
9.317,0.30,0.95,0.05,0.04,0.25,0.02,-0.01,0.10,0.14,1012.55
9.319,0.29,0.96,0.06,0.04,0.25,0.02,-0.01,0.10,0.14,1012.55
9.32,0.29,0.96,0.06,0.04,0.25,0.02,0.01,0.14,0.06,1012.55
9.322,0.28,0.93,0.07,0.04,0.25,0.02,0.01,0.14,0.06,1012.55
9.323,0.28,0.93,0.07,0.04,0.25,0.02,0.04,0.14,0.02,1012.55
9.324,0.28,0.93,0.07,-0.05,-0.06,0.10,0.04,0.14,0.02,1012.55
9.33,0.28,0.93,0.07,-0.05,-0.06,0.10,0.04,0.14,0.02,1012.56
9.362,0.26,0.98,0.01,-0.05,-0.06,0.10,0.04,0.14,0.02,1012.56
9.365,0.26,0.98,0.01,-0.05,-0.06,0.10,0.09,0.16,-0.01,1012.56
9.366,0.26,0.98,0.01,-0.19,0.43,-0.42,0.09,0.16,-0.01,1012.56
9.393,0.26,0.98,0.01,-0.19,0.43,-0.42,0.09,0.16,-0.01,1012.56
9.42,0.25,0.95,0.00,-0.19,0.43,-0.42,0.09,0.16,-0.01,1012.56
9.423,0.25,0.95,0.00,-0.19,0.43,-0.42,0.04,0.09,-0.01,1012.56
9.425,0.25,0.95,0.00,-0.29,0.21,-0.53,0.04,0.09,-0.01,1012.56
9.441,0.29,0.95,0.04,-0.29,0.21,-0.53,0.04,0.09,-0.01,1012.56
9.443,0.29,0.95,0.04,-0.29,0.21,-0.53,-0.01,0.08,-0.01,1012.56
9.443,0.29,0.95,0.04,0.07,0.16,-0.20,-0.01,0.08,-0.01,1012.56
9.451,0.29,0.95,0.04,0.07,0.16,-0.20,-0.01,0.08,-0.01,1012.57
9.482,0.24,0.97,0.04,0.07,0.16,-0.20,-0.01,0.08,-0.01,1012.57
9.485,0.24,0.97,0.04,0.07,0.16,-0.20,-0.02,0.16,-0.05,1012.57
9.486,0.24,0.97,0.04,-0.42,0.39,-0.20,-0.02,0.16,-0.05,1012.57
9.51,0.24,0.97,0.04,-0.42,0.39,-0.20,-0.02,0.16,-0.05,1012.56
9.544,0.23,0.98,0.03,-0.42,0.39,-0.20,-0.02,0.16,-0.05,1012.56
9.546,0.23,0.98,0.03,-0.42,0.39,-0.20,-0.02,0.14,-0.03,1012.56
9.549,0.23,0.98,0.03,-0.47,0.48,-0.33,-0.02,0.14,-0.03,1012.56
9.56,0.24,0.92,0.04,-0.47,0.48,-0.33,-0.02,0.14,-0.03,1012.56
9.563,0.24,0.92,0.04,-0.47,0.48,-0.33,-0.05,0.04,0.02,1012.56
9.564,0.24,0.92,0.04,-0.32,-0.14,-0.26,-0.05,0.04,0.02,1012.56
9.578,0.24,0.92,0.04,-0.32,-0.14,-0.26,-0.05,0.04,0.02,1012.55
9.608,0.27,0.95,0.06,-0.32,-0.14,-0.26,-0.05,0.04,0.02,1012.55
9.61,0.27,0.95,0.06,-0.32,-0.14,-0.26,-0.05,-0.07,0.01,1012.55
9.611,0.27,0.95,0.06,-0.04,0.13,-0.02,-0.05,-0.07,0.01,1012.55
9.63,0.27,0.95,0.06,-0.04,0.13,-0.02,-0.05,-0.07,0.01,1012.55
9.639,0.25,0.97,0.06,-0.04,0.13,-0.02,-0.05,-0.07,0.01,1012.55
9.64,0.25,0.97,0.06,-0.04,0.13,-0.02,-0.02,-0.05,-0.02,1012.55
9.641,0.25,0.97,0.06,-0.27,0.37,-0.04,-0.02,-0.05,-0.02,1012.55
9.684,0.27,0.96,0.03,-0.27,0.37,-0.04,-0.02,-0.05,-0.02,1012.55
9.688,0.27,0.96,0.03,-0.27,0.37,-0.04,-0.00,-0.01,-0.01,1012.55
9.69,0.27,0.96,0.03,-0.09,0.25,-0.34,-0.00,-0.01,-0.01,1012.55
9.691,0.27,0.96,0.03,-0.09,0.25,-0.34,-0.00,-0.01,-0.01,1012.55
9.718,0.25,0.96,0.04,-0.09,0.25,-0.34,-0.00,-0.01,-0.01,1012.55
9.72,0.25,0.96,0.04,-0.09,0.25,-0.34,-0.03,-0.02,-0.02,1012.55
9.72,0.25,0.96,0.04,-0.21,0.24,-0.23,-0.03,-0.02,-0.02,1012.55
9.749,0.25,0.96,0.04,-0.21,0.24,-0.23,-0.03,-0.02,-0.02,1012.56
9.757,0.26,0.96,0.04,-0.21,0.24,-0.23,-0.03,-0.02,-0.02,1012.56
9.757,0.26,0.96,0.04,-0.21,0.24,-0.23,-0.05,-0.02,-0.03,1012.56
9.758,0.26,0.96,0.04,-0.11,0.18,-0.28,-0.05,-0.02,-0.03,1012.56
9.797,0.26,0.96,0.04,-0.18,0.03,0.09,-0.05,-0.02,-0.03,1012.56
9.799,0.25,0.94,0.08,-0.18,0.03,0.09,-0.05,-0.02,-0.03,1012.56
9.799,0.25,0.94,0.08,-0.18,0.03,0.09,-0.04,0.09,-0.05,1012.56
9.82,0.25,0.94,0.08,-0.18,0.03,0.09,-0.04,0.09,-0.05,1012.57
9.839,0.19,0.98,0.03,-0.18,0.03,0.09,-0.04,0.09,-0.05,1012.57
9.84,0.19,0.98,0.03,-0.18,0.03,0.09,0.02,-0.01,-0.05,1012.57
9.841,0.19,0.98,0.03,-0.74,0.41,-0.36,0.02,-0.01,-0.05,1012.57
