time,gFx,gFy,gFz,ax,ay,az,wx,wy,wz,P
0.003,0.24,0.98,-0.09,-0.06,0.02,0.07,0.01,-0.16,0.11,976.11
0.006,0.24,0.98,-0.09,-0.06,0.02,0.07,0.01,-0.16,0.11,976.11
0.021,0.22,0.97,-0.12,-0.06,0.02,0.07,0.01,-0.16,0.11,976.11
0.022,0.22,0.97,-0.12,-0.06,0.02,0.07,0.03,-0.11,0.09,976.11
0.022,0.22,0.97,-0.12,-0.09,0.02,0.09,0.03,-0.11,0.09,976.11
0.042,0.22,0.99,-0.10,-0.09,0.02,0.09,0.03,-0.11,0.09,976.11
0.061,0.23,0.97,-0.08,-0.09,0.02,0.09,0.03,-0.11,0.09,976.11
0.061,0.23,0.97,-0.08,-0.09,0.02,0.09,0.04,-0.02,0.04,976.11
0.062,0.23,0.97,-0.08,0.25,0.07,-0.05,0.04,-0.02,0.04,976.11
0.062,0.23,0.97,-0.08,0.25,0.07,-0.05,0.04,-0.02,0.04,976.12
0.08,0.21,0.97,-0.11,0.25,0.07,-0.05,0.04,-0.02,0.04,976.12
0.118,0.20,0.97,-0.12,0.25,0.07,-0.05,0.04,-0.02,0.04,976.12
0.12,0.20,0.97,-0.12,0.25,0.07,-0.05,0.06,0.03,-0.03,976.12
0.122,0.20,0.97,-0.12,0.09,0.02,-0.04,0.06,0.03,-0.03,976.12
0.123,0.19,0.96,-0.12,0.09,0.02,-0.04,0.06,0.03,-0.03,976.12
0.124,0.19,0.96,-0.12,0.09,0.02,-0.04,0.06,0.03,-0.03,976.11
0.14,0.16,0.95,-0.14,0.09,0.02,-0.04,0.06,0.03,-0.03,976.11
0.141,0.16,0.95,-0.14,0.09,0.02,-0.04,0.05,0.03,-0.04,976.11
0.142,0.16,0.95,-0.14,0.10,0.02,-0.03,0.05,0.03,-0.04,976.11
0.16,0.18,0.96,-0.15,0.10,0.02,-0.03,0.05,0.03,-0.04,976.11
0.183,0.19,1.01,-0.11,0.10,0.02,-0.03,0.05,0.03,-0.04,976.11
0.186,0.19,1.01,-0.11,0.10,0.02,-0.03,-0.00,-0.02,-0.01,976.11
0.188,0.19,1.01,-0.11,-0.23,-0.13,-0.37,-0.00,-0.02,-0.01,976.11
0.19,0.19,1.01,-0.11,-0.23,-0.13,-0.37,-0.00,-0.02,-0.01,976.11
0.223,0.14,1.00,-0.10,-0.23,-0.13,-0.37,-0.00,-0.02,-0.01,976.11
0.225,0.19,0.95,-0.09,-0.23,-0.13,-0.37,-0.00,-0.02,-0.01,976.11
0.225,0.19,0.95,-0.09,-0.23,-0.13,-0.37,-0.05,-0.06,-0.01,976.11
0.226,0.19,0.95,-0.09,-0.23,0.17,0.01,-0.05,-0.06,-0.01,976.11
0.245,0.25,0.95,-0.09,-0.23,0.17,0.01,-0.05,-0.06,-0.01,976.11
0.247,0.25,0.95,-0.09,-0.23,0.17,0.01,-0.05,-0.06,-0.01,976.10
0.26,0.18,0.95,-0.13,-0.23,0.17,0.01,-0.05,-0.06,-0.01,976.10
0.261,0.18,0.95,-0.13,-0.23,0.17,0.01,-0.01,0.03,0.02,976.10
0.262,0.18,0.95,-0.13,-0.23,0.17,0.00,-0.01,0.03,0.02,976.10
0.279,0.19,0.99,-0.13,-0.23,0.17,0.00,-0.01,0.03,0.02,976.10
0.304,0.26,1.02,-0.08,-0.23,0.17,0.00,-0.01,0.03,0.02,976.10
0.307,0.26,1.02,-0.08,-0.23,0.17,0.00,-0.02,0.01,-0.01,976.10
0.309,0.26,1.02,-0.08,0.07,-0.07,-0.18,-0.02,0.01,-0.01,976.10
0.311,0.26,1.02,-0.08,0.07,-0.07,-0.18,-0.02,0.01,-0.01,976.10
0.32,0.22,0.94,-0.03,0.07,-0.07,-0.18,-0.02,0.01,-0.01,976.10
0.349,0.22,0.94,-0.03,0.19,-0.05,0.38,-0.02,0.01,-0.01,976.10
0.351,0.17,0.94,-0.06,0.19,-0.05,0.38,-0.02,0.01,-0.01,976.10
0.352,0.17,0.94,-0.06,0.19,-0.05,0.38,-0.01,-0.01,-0.06,976.10
0.358,0.20,0.97,-0.11,0.19,-0.05,0.38,-0.01,-0.01,-0.06,976.10
0.363,0.20,0.97,-0.11,0.19,-0.05,0.38,-0.01,-0.01,-0.06,976.09
0.388,0.20,0.97,-0.11,0.22,-0.05,0.40,-0.01,-0.01,-0.06,976.09
0.39,0.25,0.95,-0.11,0.22,-0.05,0.40,-0.01,-0.01,-0.06,976.09
0.391,0.25,0.95,-0.11,0.22,-0.05,0.40,0.07,0.00,-0.07,976.09
0.398,0.31,0.96,-0.10,0.22,-0.05,0.40,0.07,0.00,-0.07,976.09
0.439,0.28,1.01,-0.07,0.22,-0.05,0.40,0.07,0.00,-0.07,976.09
0.443,0.28,1.01,-0.07,0.22,-0.05,0.40,0.07,-0.03,-0.18,976.09
0.444,0.28,1.01,-0.07,0.62,-0.14,-0.06,0.07,-0.03,-0.18,976.09
0.445,0.28,1.01,-0.07,0.62,-0.14,-0.06,0.07,-0.03,-0.18,976.08
0.445,0.12,1.00,-0.08,0.62,-0.14,-0.06,0.07,-0.03,-0.18,976.08
0.456,0.13,0.96,-0.12,0.62,-0.14,-0.06,0.07,-0.03,-0.18,976.08
0.458,0.13,0.96,-0.12,0.62,-0.14,-0.06,0.12,0.19,-0.35,976.08
0.459,0.13,0.96,-0.12,0.05,0.17,0.15,0.12,0.19,-0.35,976.08
0.476,0.21,1.03,-0.11,0.05,0.17,0.15,0.12,0.19,-0.35,976.08
0.482,0.21,1.03,-0.11,0.05,0.17,0.15,0.12,0.19,-0.35,976.08
0.496,0.16,1.04,-0.14,0.05,0.17,0.15,0.12,0.19,-0.35,976.08
0.499,0.16,1.04,-0.14,0.05,0.17,0.15,0.13,0.00,-0.32,976.08
0.501,0.16,1.04,-0.14,0.17,0.15,0.20,0.13,0.00,-0.32,976.08
0.534,0.13,1.03,-0.12,0.17,0.15,0.20,0.13,0.00,-0.32,976.08
0.538,0.14,1.01,-0.07,0.17,0.15,0.20,0.13,0.00,-0.32,976.08
0.54,0.14,1.01,-0.07,0.17,0.15,0.20,0.12,0.11,-0.35,976.08
0.541,0.14,1.01,-0.07,0.19,0.52,-0.10,0.12,0.11,-0.35,976.08
0.542,0.14,1.01,-0.07,0.19,0.52,-0.10,0.12,0.11,-0.35,976.09
0.571,0.13,1.02,-0.02,0.19,0.52,-0.10,0.12,0.11,-0.35,976.09
0.585,0.09,1.10,-0.02,0.19,0.52,-0.10,0.12,0.11,-0.35,976.09
0.589,0.09,1.10,-0.02,0.19,0.52,-0.10,0.24,0.46,-0.39,976.09
0.591,0.09,1.10,-0.02,-0.17,0.61,0.79,0.24,0.46,-0.39,976.09
0.595,0.12,1.10,-0.05,-0.17,0.61,0.79,0.24,0.46,-0.39,976.09
0.604,0.12,1.10,-0.05,-0.17,0.61,0.79,0.24,0.46,-0.39,976.08
0.618,0.24,0.95,-0.09,-0.17,0.61,0.79,0.24,0.46,-0.39,976.08
0.621,0.24,0.95,-0.09,-0.17,0.61,0.79,0.61,0.84,-0.55,976.08
0.623,0.24,0.95,-0.09,-0.00,0.60,0.96,0.61,0.84,-0.55,976.08
0.634,0.10,0.74,-0.23,-0.00,0.60,0.96,0.61,0.84,-0.55,976.08
0.661,0.03,0.67,-0.47,-0.00,0.60,0.96,0.61,0.84,-0.55,976.08
0.662,0.03,0.67,-0.47,-0.00,0.60,0.96,1.20,1.68,-0.99,976.08
0.663,0.03,0.67,-0.47,0.57,-0.45,0.52,1.20,1.68,-0.99,976.08
0.664,0.03,0.67,-0.47,0.57,-0.45,0.52,1.20,1.68,-0.99,976.08
0.674,-0.01,0.72,-0.48,0.57,-0.45,0.52,1.20,1.68,-0.99,976.08
0.693,-0.16,0.55,-0.51,0.57,-0.45,0.52,1.20,1.68,-0.99,976.08
0.694,-0.16,0.55,-0.51,0.57,-0.45,0.52,1.89,3.71,-1.74,976.08
0.695,-0.16,0.55,-0.51,-0.99,-3.11,-2.44,1.89,3.71,-1.74,976.08
0.714,0.04,0.43,-0.29,-0.99,-3.11,-2.44,1.89,3.71,-1.74,976.08
0.741,0.04,0.43,-0.29,-0.99,-3.11,-2.44,1.89,3.71,-1.74,976.09
0.744,0.49,0.82,0.06,-0.99,-3.11,-2.44,1.89,3.71,-1.74,976.09
0.745,0.49,0.82,0.06,-0.99,-3.11,-2.44,1.78,3.93,-1.76,976.09
0.747,0.49,0.82,0.06,-0.74,-2.90,-1.82,1.78,3.93,-1.76,976.09
0.767,0.03,1.87,0.21,-0.74,-2.90,-1.82,1.78,3.93,-1.76,976.09
0.774,0.03,1.87,0.21,1.63,1.01,3.06,1.78,3.93,-1.76,976.09
0.776,-1.49,2.20,-0.78,1.63,1.01,3.06,1.78,3.93,-1.76,976.09
0.777,-1.49,2.20,-0.78,1.63,1.01,3.06,0.55,0.72,-0.59,976.09
0.783,-1.49,2.20,-0.78,1.63,1.01,3.06,0.55,0.72,-0.59,976.10
0.792,-1.69,0.52,-0.96,1.63,1.01,3.06,0.55,0.72,-0.59,976.10
0.812,1.55,0.09,-0.42,1.63,1.01,3.06,0.55,0.72,-0.59,976.10
0.813,1.55,0.09,-0.42,1.63,1.01,3.06,-0.24,-2.70,1.10,976.10
0.814,1.55,0.09,-0.42,-5.48,-0.03,-3.94,-0.24,-2.70,1.10,976.10
0.833,1.33,0.97,-0.05,-5.48,-0.03,-3.94,-0.24,-2.70,1.10,976.10
0.843,1.33,0.97,-0.05,-5.48,-0.03,-3.94,-0.24,-2.70,1.10,976.10
0.863,-0.57,1.54,-0.14,-5.48,-0.03,-3.94,-0.24,-2.70,1.10,976.10
0.865,-0.57,1.54,-0.14,-5.48,-0.03,-3.94,-0.07,-0.45,1.01,976.10
0.866,-0.57,1.54,-0.14,-5.70,-0.02,-3.89,-0.07,-0.45,1.01,976.10
0.875,-0.62,0.92,-0.32,-5.70,-0.02,-3.89,-0.07,-0.45,1.01,976.10
0.891,0.45,0.79,-0.42,-5.70,-0.02,-3.89,-0.07,-0.45,1.01,976.10
0.892,0.45,0.79,-0.42,0.07,1.97,1.57,-0.07,-0.45,1.01,976.10
0.893,0.45,0.79,-0.42,0.07,1.97,1.57,0.18,0.17,-0.00,976.10
0.905,0.45,0.79,-0.42,0.07,1.97,1.57,0.18,0.17,-0.00,976.10
0.912,0.89,1.10,-0.35,0.07,1.97,1.57,0.18,0.17,-0.00,976.10
0.932,0.10,0.90,-0.41,0.07,1.97,1.57,0.18,0.17,-0.00,976.10
0.934,0.10,0.90,-0.41,0.07,1.97,1.57,0.13,-0.30,0.34,976.10
0.936,0.10,0.90,-0.41,4.13,-0.09,-0.60,0.13,-0.30,0.34,976.10
0.96,-0.28,0.90,-0.38,4.13,-0.09,-0.60,0.13,-0.30,0.34,976.10
0.965,-0.28,0.90,-0.38,4.13,-0.09,-0.60,0.13,-0.30,0.34,976.10
0.973,-0.12,1.01,-0.33,4.13,-0.09,-0.60,0.13,-0.30,0.34,976.10
0.974,-0.12,1.01,-0.33,4.13,-0.09,-0.60,0.08,0.70,-0.34,976.10
0.975,-0.12,1.01,-0.33,4.09,-0.09,-0.58,0.08,0.70,-0.34,976.10
0.989,0.07,0.98,-0.35,4.09,-0.09,-0.58,0.08,0.70,-0.34,976.10
1.009,-0.01,0.90,-0.37,4.09,-0.09,-0.58,0.08,0.70,-0.34,976.10
1.01,-0.01,0.90,-0.37,4.09,-0.09,-0.58,-0.02,0.14,-0.03,976.10
1.01,-0.01,0.90,-0.37,-1.63,0.27,-0.16,-0.02,0.14,-0.03,976.10
1.038,-0.01,0.90,-0.37,-1.63,0.27,-0.16,-0.02,0.14,-0.03,976.10
1.041,-0.14,0.89,-0.38,-1.63,0.27,-0.16,-0.02,0.14,-0.03,976.10
1.05,-0.09,0.92,-0.38,-1.63,0.27,-0.16,-0.02,0.14,-0.03,976.10
1.05,-0.09,0.92,-0.38,-1.63,0.27,-0.16,-0.04,0.07,0.12,976.10
1.051,-0.09,0.92,-0.38,-1.39,-0.34,-0.44,-0.04,0.07,0.12,976.10
1.069,0.20,1.02,-0.24,-1.39,-0.34,-0.44,-0.04,0.07,0.12,976.10
1.082,0.20,1.02,-0.24,-1.39,-0.34,-0.44,-0.04,0.07,0.12,976.09
1.089,0.08,0.98,-0.23,-1.39,-0.34,-0.44,-0.04,0.07,0.12,976.09
1.09,0.08,0.98,-0.23,-1.39,-0.34,-0.44,-0.10,-0.15,0.30,976.09
1.091,0.08,0.98,-0.23,-1.46,-0.34,-0.47,-0.10,-0.15,0.30,976.09
1.11,-0.20,0.91,-0.34,-1.46,-0.34,-0.47,-0.10,-0.15,0.30,976.09
1.144,-0.01,0.94,-0.40,-1.46,-0.34,-0.47,-0.10,-0.15,0.30,976.09
1.147,-0.01,0.94,-0.40,-1.46,-0.34,-0.47,-0.00,0.07,0.33,976.09
1.149,-0.01,0.94,-0.40,-0.50,0.33,0.59,-0.00,0.07,0.33,976.09
1.151,-0.01,0.94,-0.40,-0.50,0.33,0.59,-0.00,0.07,0.33,976.09
1.153,0.31,0.94,-0.33,-0.50,0.33,0.59,-0.00,0.07,0.33,976.09
1.168,0.11,0.92,-0.31,-0.50,0.33,0.59,-0.00,0.07,0.33,976.09
1.17,0.11,0.92,-0.31,-0.50,0.33,0.59,-0.02,-0.17,0.45,976.09
1.17,0.11,0.92,-0.31,0.41,-0.03,-0.18,-0.02,-0.17,0.45,976.09
1.188,-0.20,0.90,-0.37,0.41,-0.03,-0.18,-0.02,-0.17,0.45,976.09
1.202,-0.20,0.90,-0.37,0.41,-0.03,-0.18,-0.02,-0.17,0.45,976.09
1.207,-0.06,0.90,-0.35,0.41,-0.03,-0.18,-0.02,-0.17,0.45,976.09
1.209,-0.06,0.90,-0.35,0.41,-0.03,-0.18,-0.02,-0.02,0.40,976.09
1.21,-0.06,0.90,-0.35,0.26,-0.01,-0.18,-0.02,-0.02,0.40,976.09
1.227,0.12,0.97,-0.23,0.26,-0.01,-0.18,-0.02,-0.02,0.40,976.09
1.25,-0.07,0.94,-0.25,0.26,-0.01,-0.18,-0.02,-0.02,0.40,976.09
1.253,-0.07,0.94,-0.25,0.26,-0.01,-0.18,-0.00,-0.29,0.71,976.09
1.254,-0.07,0.94,-0.25,-1.72,-0.04,0.14,-0.00,-0.29,0.71,976.09
1.265,-0.07,0.94,-0.25,-1.72,-0.04,0.14,-0.00,-0.29,0.71,976.10
1.267,-0.18,0.91,-0.21,-1.72,-0.04,0.14,-0.00,-0.29,0.71,976.10
1.286,-0.19,0.90,-0.28,-1.72,-0.04,0.14,-0.00,-0.29,0.71,976.10
1.288,-0.19,0.90,-0.28,-1.72,-0.04,0.14,0.20,0.01,1.04,976.10
1.288,-0.19,0.90,-0.28,-3.02,-0.05,0.90,0.20,0.01,1.04,976.10
1.307,0.01,0.83,-0.26,-3.02,-0.05,0.90,0.20,0.01,1.04,976.10
1.341,0.01,0.83,-0.26,-3.02,-0.05,0.90,0.20,0.01,1.04,976.10
1.343,0.01,0.83,-0.26,-3.49,0.12,1.03,0.20,0.01,1.04,976.10
1.344,0.41,0.83,-0.14,-3.49,0.12,1.03,0.20,0.01,1.04,976.10
1.344,0.41,0.83,-0.14,-3.49,0.12,1.03,0.39,-0.12,1.55,976.10
1.346,0.42,0.86,-0.19,-3.49,0.12,1.03,0.39,-0.12,1.55,976.10
1.365,0.22,0.80,-0.42,-3.49,0.12,1.03,0.39,-0.12,1.55,976.10
1.367,0.22,0.80,-0.42,-3.49,0.12,1.03,0.66,0.16,1.78,976.10
1.368,0.22,0.80,-0.42,0.03,-0.37,1.66,0.66,0.16,1.78,976.10
1.382,0.22,0.80,-0.42,0.03,-0.37,1.66,0.66,0.16,1.78,976.09
1.387,0.28,0.88,-0.36,0.03,-0.37,1.66,0.66,0.16,1.78,976.09
1.429,0.11,0.87,-0.51,0.03,-0.37,1.66,0.66,0.16,1.78,976.09
1.432,0.11,0.87,-0.51,0.03,-0.37,1.66,0.82,0.64,1.75,976.09
1.434,0.11,0.87,-0.51,-1.37,0.06,-0.41,0.82,0.64,1.75,976.09
1.436,0.36,0.57,-0.54,-1.37,0.06,-0.41,0.82,0.64,1.75,976.09
1.447,0.36,0.57,-0.54,-1.37,0.06,-0.41,0.82,0.64,1.75,976.09
1.448,0.94,0.86,-0.35,-1.37,0.06,-0.41,0.82,0.64,1.75,976.09
1.449,0.94,0.86,-0.35,-1.37,0.06,-0.41,0.62,0.29,2.06,976.09
1.45,0.94,0.86,-0.35,-2.03,0.45,-0.24,0.62,0.29,2.06,976.09
1.464,0.60,0.92,-0.37,-2.03,0.45,-0.24,0.62,0.29,2.06,976.09
1.485,0.33,0.51,-0.57,-2.03,0.45,-0.24,0.62,0.29,2.06,976.09
1.487,0.33,0.51,-0.57,-2.03,0.45,-0.24,0.50,0.81,2.00,976.09
1.489,0.33,0.51,-0.57,1.41,0.22,-0.13,0.50,0.81,2.00,976.09
1.503,0.33,0.51,-0.57,1.41,0.22,-0.13,0.50,0.81,2.00,976.09
1.511,0.73,0.94,-0.48,1.41,0.22,-0.13,0.50,0.81,2.00,976.09
1.525,0.42,0.90,-0.51,1.41,0.22,-0.13,0.50,0.81,2.00,976.09
1.529,0.42,0.90,-0.51,1.41,0.22,-0.13,0.42,1.18,1.89,976.09
1.533,0.42,0.90,-0.51,-0.66,0.66,-1.17,0.42,1.18,1.89,976.09
1.559,0.52,0.85,-0.46,-0.66,0.66,-1.17,0.42,1.18,1.89,976.09
1.564,0.52,0.85,-0.46,-0.66,0.66,-1.17,0.42,1.18,1.89,976.09
1.564,0.73,1.61,-0.29,-0.66,0.66,-1.17,0.42,1.18,1.89,976.09
1.565,0.73,1.61,-0.29,-0.66,0.66,-1.17,0.52,1.47,2.01,976.09
1.566,0.73,1.61,-0.29,-1.39,1.18,-1.35,0.52,1.47,2.01,976.09
1.584,0.35,2.19,-0.31,-1.39,1.18,-1.35,0.52,1.47,2.01,976.09
1.603,0.66,2.47,-0.38,-1.39,1.18,-1.35,0.52,1.47,2.01,976.09
1.605,0.66,2.47,-0.38,-1.39,1.18,-1.35,0.69,1.66,2.58,976.09
1.606,0.66,2.47,-0.38,-1.86,9.32,-0.01,0.69,1.66,2.58,976.09
1.626,0.66,2.47,-0.38,-1.86,9.32,-0.01,0.69,1.66,2.58,976.09
1.629,0.36,1.93,-0.46,-1.86,9.32,-0.01,0.69,1.66,2.58,976.09
1.648,-0.22,0.91,-0.77,-1.86,9.32,-0.01,0.69,1.66,2.58,976.09
1.652,-0.22,0.91,-0.77,-1.86,9.32,-0.01,0.38,0.47,2.94,976.09
1.654,-0.22,0.91,-0.77,-5.04,12.16,-1.85,0.38,0.47,2.94,976.09
1.661,0.32,-0.23,-1.00,-5.04,12.16,-1.85,0.38,0.47,2.94,976.09
1.683,0.32,-0.23,-1.00,-5.04,12.16,-1.85,0.38,0.47,2.94,976.09
1.686,2.08,-0.81,-1.19,-5.04,12.16,-1.85,0.38,0.47,2.94,976.09
1.687,2.08,-0.81,-1.19,-5.04,12.16,-1.85,-0.15,-2.10,2.58,976.09
1.688,2.08,-0.81,-1.19,-5.13,12.72,-1.21,-0.15,-2.10,2.58,976.09
1.701,1.55,-0.07,-0.71,-5.13,12.72,-1.21,-0.15,-2.10,2.58,976.09
1.724,1.55,-0.07,-0.71,4.99,-7.51,-4.92,-0.15,-2.10,2.58,976.09
1.728,0.37,0.68,-0.40,4.99,-7.51,-4.92,-0.15,-2.10,2.58,976.09
1.729,0.37,0.68,-0.40,4.99,-7.51,-4.92,-0.54,-1.66,2.17,976.09
1.751,0.22,0.48,-0.23,4.99,-7.51,-4.92,-0.54,-1.66,2.17,976.09
1.753,0.22,0.48,-0.23,4.99,-7.51,-4.92,-0.54,-1.66,2.17,976.09
1.76,0.10,-0.12,-0.21,4.99,-7.51,-4.92,-0.54,-1.66,2.17,976.09
1.762,0.10,-0.12,-0.21,4.99,-7.51,-4.92,-1.04,1.46,-0.05,976.09
1.763,0.10,-0.12,-0.21,-5.82,-0.72,1.15,-1.04,1.46,-0.05,976.09
1.781,-0.05,-0.05,-0.14,-5.82,-0.72,1.15,-1.04,1.46,-0.05,976.09
1.801,0.06,0.21,-0.10,-5.82,-0.72,1.15,-1.04,1.46,-0.05,976.09
1.804,0.06,0.21,-0.10,-5.82,-0.72,1.15,-1.31,0.55,-1.34,976.09
1.806,0.06,0.21,-0.10,-5.57,-1.31,0.73,-1.31,0.55,-1.34,976.09
1.807,0.06,0.21,-0.10,-5.57,-1.31,0.73,-1.31,0.55,-1.34,976.09
1.82,0.26,0.21,-0.06,-5.57,-1.31,0.73,-1.31,0.55,-1.34,976.09
1.843,0.32,0.24,-0.05,-5.57,-1.31,0.73,-1.31,0.55,-1.34,976.09
1.849,0.32,0.24,-0.05,-6.32,-4.17,2.48,-1.31,0.55,-1.34,976.09
1.851,0.32,0.24,-0.05,-6.32,-4.17,2.48,-1.44,-0.89,-1.94,976.09
1.867,0.27,0.31,-0.08,-6.32,-4.17,2.48,-1.44,-0.89,-1.94,976.09
1.87,0.27,0.31,-0.08,-6.32,-4.17,2.48,-1.44,-0.89,-1.94,976.09
1.88,0.27,0.31,-0.08,-3.48,-3.10,2.59,-1.44,-0.89,-1.94,976.09
1.882,0.29,0.41,-0.11,-3.48,-3.10,2.59,-1.44,-0.89,-1.94,976.09
1.883,0.29,0.41,-0.11,-3.48,-3.10,2.59,-1.52,-1.24,-2.55,976.09
1.899,0.29,0.49,-0.16,-3.48,-3.10,2.59,-1.52,-1.24,-2.55,976.09
1.918,0.36,0.56,-0.25,-3.48,-3.10,2.59,-1.52,-1.24,-2.55,976.09
1.921,0.36,0.56,-0.25,-3.48,-3.10,2.59,-1.55,-1.44,-2.94,976.09
1.923,0.36,0.56,-0.25,-2.47,-3.92,2.48,-1.55,-1.44,-2.94,976.09
1.925,0.36,0.56,-0.25,-2.47,-3.92,2.48,-1.55,-1.44,-2.94,976.08
1.944,0.48,0.61,-0.31,-2.47,-3.92,2.48,-1.55,-1.44,-2.94,976.08
1.963,0.52,0.65,-0.36,-2.47,-3.92,2.48,-1.55,-1.44,-2.94,976.08
1.965,0.52,0.65,-0.36,-2.47,-3.92,2.48,-1.75,-1.68,-3.12,976.08
1.966,0.52,0.65,-0.36,-0.55,-2.39,0.69,-1.75,-1.68,-3.12,976.08
1.979,0.49,0.70,-0.39,-0.55,-2.39,0.69,-1.75,-1.68,-3.12,976.08
1.981,0.49,0.70,-0.39,-0.55,-2.39,0.69,-1.75,-1.68,-3.12,976.08
1.999,0.45,0.77,-0.49,-0.55,-2.39,0.69,-1.75,-1.68,-3.12,976.08
2.003,0.45,0.77,-0.49,-0.55,-2.39,0.69,-2.07,-1.37,-3.57,976.08
2.005,0.45,0.77,-0.49,1.83,-1.60,-1.46,-2.07,-1.37,-3.57,976.08
2.019,0.51,0.83,-0.59,1.83,-1.60,-1.46,-2.07,-1.37,-3.57,976.08
2.041,0.72,0.90,-0.57,1.83,-1.60,-1.46,-2.07,-1.37,-3.57,976.08
2.043,0.72,0.90,-0.57,1.83,-1.60,-1.46,-2.17,-1.36,-3.92,976.08
2.043,0.72,0.90,-0.57,3.27,-2.10,-2.06,-2.17,-1.36,-3.92,976.08
2.044,0.72,0.90,-0.57,3.27,-2.10,-2.06,-2.17,-1.36,-3.92,976.08
2.062,0.81,0.93,-0.50,3.27,-2.10,-2.06,-2.17,-1.36,-3.92,976.08
2.076,0.86,1.01,-0.52,3.27,-2.10,-2.06,-2.17,-1.36,-3.92,976.08
2.079,0.86,1.01,-0.52,3.27,-2.10,-2.06,-2.00,-0.94,-3.89,976.08
2.079,0.86,1.01,-0.52,6.51,-0.61,-4.05,-2.00,-0.94,-3.89,976.08
2.096,0.68,1.00,-0.33,6.51,-0.61,-4.05,-2.00,-0.94,-3.89,976.08
2.102,0.68,1.00,-0.33,6.51,-0.61,-4.05,-2.00,-0.94,-3.89,976.09
2.117,0.30,0.95,-0.32,6.51,-0.61,-4.05,-2.00,-0.94,-3.89,976.09
2.12,0.30,0.95,-0.32,6.51,-0.61,-4.05,-1.52,0.91,-3.31,976.09
2.122,0.30,0.95,-0.32,6.91,0.38,-2.94,-1.52,0.91,-3.31,976.09
2.142,0.22,0.96,-0.44,6.91,0.38,-2.94,-1.52,0.91,-3.31,976.09
2.165,0.28,0.81,-0.43,6.91,0.38,-2.94,-1.52,0.91,-3.31,976.09
2.166,0.28,0.81,-0.43,6.91,0.38,-2.94,-0.69,1.67,-2.00,976.09
2.168,0.28,0.81,-0.43,7.46,0.46,-3.05,-0.69,1.67,-2.00,976.09
2.168,0.28,0.81,-0.43,7.46,0.46,-3.05,-0.69,1.67,-2.00,976.11
2.176,0.56,0.73,-0.19,7.46,0.46,-3.05,-0.69,1.67,-2.00,976.11
2.195,0.78,0.81,-0.15,7.46,0.46,-3.05,-0.69,1.67,-2.00,976.11
2.196,0.78,0.81,-0.15,7.46,0.46,-3.05,0.13,0.73,-0.27,976.11
2.198,0.78,0.81,-0.15,4.91,-1.00,-2.54,0.13,0.73,-0.27,976.11
2.215,0.42,0.92,-0.33,4.91,-1.00,-2.54,0.13,0.73,-0.27,976.11
2.221,0.42,0.92,-0.33,4.91,-1.00,-2.54,0.13,0.73,-0.27,976.12
2.242,0.12,0.94,-0.43,4.91,-1.00,-2.54,0.13,0.73,-0.27,976.12
2.244,0.12,0.94,-0.43,5.17,-0.51,-1.68,0.13,0.73,-0.27,976.12
2.246,0.12,0.94,-0.43,5.17,-0.51,-1.68,0.87,0.64,1.29,976.12
2.274,0.21,1.02,-0.28,5.17,-0.51,-1.68,0.87,0.64,1.29,976.12
2.277,0.39,2.25,0.34,5.17,-0.51,-1.68,0.87,0.64,1.29,976.12
2.28,0.39,2.25,0.34,5.17,-0.51,-1.68,1.46,0.15,2.71,976.12
2.281,0.39,2.25,0.34,4.11,-0.45,-1.12,1.46,0.15,2.71,976.12
2.283,0.39,2.25,0.34,4.11,-0.45,-1.12,1.46,0.15,2.71,976.12
2.303,-1.91,2.02,0.16,4.11,-0.45,-1.12,1.46,0.15,2.71,976.12
2.314,-1.22,1.26,-0.96,4.11,-0.45,-1.12,1.46,0.15,2.71,976.12
2.316,-1.22,1.26,-0.96,4.11,-0.45,-1.12,1.87,0.40,1.73,976.12
2.318,-1.22,1.26,-0.96,-5.01,8.19,3.14,1.87,0.40,1.73,976.12
2.334,0.78,1.44,-0.07,-5.01,8.19,3.14,1.87,0.40,1.73,976.12
2.353,0.78,1.44,-0.07,-5.01,8.19,3.14,1.87,0.40,1.73,976.12
2.354,1.32,0.96,-0.19,-5.01,8.19,3.14,1.87,0.40,1.73,976.12
2.355,1.32,0.96,-0.19,-5.01,8.19,3.14,1.18,-1.30,1.86,976.12
2.356,1.32,0.96,-0.19,1.57,3.01,-1.03,1.18,-1.30,1.86,976.12
2.372,0.28,1.67,-0.63,1.57,3.01,-1.03,1.18,-1.30,1.86,976.12
2.392,-0.35,2.25,-0.50,1.57,3.01,-1.03,1.18,-1.30,1.86,976.12
2.394,-0.35,2.25,-0.50,1.57,3.01,-1.03,0.59,-0.75,1.48,976.12
2.396,-0.35,2.25,-0.50,1.13,3.12,-0.76,0.59,-0.75,1.48,976.12
2.401,-0.35,2.25,-0.50,1.13,3.12,-0.76,0.59,-0.75,1.48,976.12
2.413,0.50,0.46,-0.66,1.13,3.12,-0.76,0.59,-0.75,1.48,976.12
2.436,1.11,0.11,-0.55,1.13,3.12,-0.76,0.59,-0.75,1.48,976.12
2.438,1.11,0.11,-0.55,1.13,3.12,-0.76,0.13,0.36,1.20,976.12
2.439,1.11,0.11,-0.55,-0.81,5.49,-2.59,0.13,0.36,1.20,976.12
2.459,0.38,1.00,-0.30,-0.81,5.49,-2.59,0.13,0.36,1.20,976.12
2.461,0.38,1.00,-0.30,-0.81,5.49,-2.59,0.13,0.36,1.20,976.12
2.471,0.08,1.43,-0.27,-0.81,5.49,-2.59,0.13,0.36,1.20,976.12
2.472,0.08,1.43,-0.27,-0.81,5.49,-2.59,-0.34,0.09,0.60,976.12
2.473,0.08,1.43,-0.27,2.68,-0.50,-0.52,-0.34,0.09,0.60,976.12
2.493,0.04,0.95,-0.19,2.68,-0.50,-0.52,-0.34,0.09,0.60,976.12
2.512,0.08,0.71,-0.13,2.68,-0.50,-0.52,-0.34,0.09,0.60,976.12
2.515,0.08,0.71,-0.13,2.68,-0.50,-0.52,-0.15,-0.01,0.29,976.12
2.518,0.08,0.71,-0.13,2.54,-0.48,-0.56,-0.15,-0.01,0.29,976.12
2.52,0.08,0.71,-0.13,2.54,-0.48,-0.56,-0.15,-0.01,0.29,976.11
2.531,0.08,0.79,-0.22,2.54,-0.48,-0.56,-0.15,-0.01,0.29,976.11
2.558,0.21,0.87,-0.15,2.54,-0.48,-0.56,-0.15,-0.01,0.29,976.11
2.559,0.21,0.87,-0.15,2.54,-0.48,-0.56,0.19,0.07,0.78,976.11
2.56,0.21,0.87,-0.15,-2.18,-0.68,1.38,0.19,0.07,0.78,976.11
2.57,0.10,0.93,-0.14,-2.18,-0.68,1.38,0.19,0.07,0.78,976.11
2.582,0.10,0.93,-0.14,-2.18,-0.68,1.38,0.19,0.07,0.78,976.12
2.592,-0.01,0.86,-0.16,-2.18,-0.68,1.38,0.19,0.07,0.78,976.12
2.594,-0.01,0.86,-0.16,-2.18,-0.68,1.38,0.47,0.43,1.18,976.12
2.595,-0.01,0.86,-0.16,-2.26,0.24,1.74,0.47,0.43,1.18,976.12
2.61,0.15,0.70,-0.26,-2.26,0.24,1.74,0.47,0.43,1.18,976.12
2.629,0.52,0.73,-0.26,-2.26,0.24,1.74,0.47,0.43,1.18,976.12
2.631,0.52,0.73,-0.26,-2.26,0.24,1.74,0.82,0.67,1.79,976.12
2.632,0.52,0.73,-0.26,-2.89,0.59,1.88,0.82,0.67,1.79,976.12
2.648,0.52,0.73,-0.26,-2.89,0.59,1.88,0.82,0.67,1.79,976.12
2.65,0.48,0.97,-0.28,-2.89,0.59,1.88,0.82,0.67,1.79,976.12
2.67,0.48,0.97,-0.28,-0.94,0.25,0.90,0.82,0.67,1.79,976.12
2.672,0.24,0.78,-0.53,-0.94,0.25,0.90,0.82,0.67,1.79,976.12
2.672,0.24,0.78,-0.53,-0.94,0.25,0.90,1.14,1.04,2.17,976.12
2.688,0.50,0.77,-0.53,-0.94,0.25,0.90,1.14,1.04,2.17,976.12
2.701,0.50,0.77,-0.53,-0.94,0.25,0.90,1.14,1.04,2.17,976.12
2.711,0.64,1.26,-0.50,-0.94,0.25,0.90,1.14,1.04,2.17,976.12
2.714,0.64,1.26,-0.50,-0.94,0.25,0.90,1.23,1.63,2.45,976.12
2.716,0.64,1.26,-0.50,-1.09,2.23,-1.51,1.23,1.63,2.45,976.12
2.729,0.32,1.80,-0.40,-1.09,2.23,-1.51,1.23,1.63,2.45,976.12
2.76,0.66,2.06,-0.60,-1.09,2.23,-1.51,1.23,1.63,2.45,976.12
2.761,0.66,2.06,-0.60,-1.09,2.23,-1.51,1.07,1.95,2.89,976.12
2.762,0.66,2.06,-0.60,-2.06,3.02,-1.68,1.07,1.95,2.89,976.12
2.763,0.66,2.06,-0.60,-2.06,3.02,-1.68,1.07,1.95,2.89,976.11
2.77,1.16,2.05,-0.35,-2.06,3.02,-1.68,1.07,1.95,2.89,976.11
2.788,0.08,1.23,-0.57,-2.06,3.02,-1.68,1.07,1.95,2.89,976.11
2.79,0.08,1.23,-0.57,-2.06,3.02,-1.68,0.46,0.78,3.26,976.11
2.791,0.08,1.23,-0.57,-0.41,13.86,-1.11,0.46,0.78,3.26,976.11
2.81,-0.20,0.31,-0.63,-0.41,13.86,-1.11,0.46,0.78,3.26,976.11
2.821,-0.20,0.31,-0.63,-0.41,13.86,-1.11,0.46,0.78,3.26,976.10
2.831,-0.20,0.31,-0.63,-4.78,-1.17,-3.08,0.46,0.78,3.26,976.10
2.836,1.00,-0.47,-0.87,-4.78,-1.17,-3.08,0.46,0.78,3.26,976.10
2.839,1.00,-0.47,-0.87,-4.78,-1.17,-3.08,0.08,-1.03,2.43,976.10
2.861,1.32,-0.20,-0.55,-4.78,-1.17,-3.08,0.08,-1.03,2.43,976.10
2.867,0.51,0.19,-0.06,-4.78,-1.17,-3.08,0.08,-1.03,2.43,976.10
2.868,0.51,0.19,-0.06,-4.78,-1.17,-3.08,-0.02,-1.90,1.48,976.10
2.869,0.51,0.19,-0.06,-4.66,-0.72,-2.46,-0.02,-1.90,1.48,976.10
2.892,0.51,0.19,-0.06,-4.66,-0.72,-2.46,-0.02,-1.90,1.48,976.10
2.894,0.02,0.15,-0.08,-4.66,-0.72,-2.46,-0.02,-1.90,1.48,976.10
2.906,-0.14,0.26,-0.14,-4.66,-0.72,-2.46,-0.02,-1.90,1.48,976.10
2.909,-0.14,0.26,-0.14,-4.66,-0.72,-2.46,-0.56,1.16,-1.53,976.10
2.911,-0.14,0.26,-0.14,-1.41,-4.24,1.59,-0.56,1.16,-1.53,976.10
2.935,-0.07,0.34,-0.06,-1.41,-4.24,1.59,-0.56,1.16,-1.53,976.10
2.94,-0.07,0.34,-0.06,-1.41,-4.24,1.59,-0.56,1.16,-1.53,976.10
2.961,-0.07,0.34,-0.06,-6.71,-2.61,2.50,-0.56,1.16,-1.53,976.10
2.963,0.22,0.34,-0.09,-6.71,-2.61,2.50,-0.56,1.16,-1.53,976.10
2.964,0.22,0.34,-0.09,-6.71,-2.61,2.50,-0.74,0.60,-3.21,976.10
2.965,0.33,0.46,0.04,-6.71,-2.61,2.50,-0.74,0.60,-3.21,976.10
2.986,0.27,0.54,-0.03,-6.71,-2.61,2.50,-0.74,0.60,-3.21,976.10
2.988,0.27,0.54,-0.03,-6.71,-2.61,2.50,-0.82,-0.38,-3.91,976.10
2.989,0.27,0.54,-0.03,-5.60,-3.62,2.35,-0.82,-0.38,-3.91,976.10
3.001,0.27,0.54,-0.03,-5.60,-3.62,2.35,-0.82,-0.38,-3.91,976.10
3.011,0.31,0.56,-0.01,-5.60,-3.62,2.35,-0.82,-0.38,-3.91,976.10
3.027,0.37,0.65,-0.04,-5.60,-3.62,2.35,-0.82,-0.38,-3.91,976.10
3.03,0.37,0.65,-0.04,-5.60,-3.62,2.35,-1.00,-0.18,-4.69,976.10
3.032,0.37,0.65,-0.04,-1.26,-2.60,3.04,-1.00,-0.18,-4.69,976.10
3.048,0.43,0.75,-0.17,-1.26,-2.60,3.04,-1.00,-0.18,-4.69,976.10
3.079,0.43,0.75,-0.17,-1.26,-2.60,3.04,-1.00,-0.18,-4.69,976.10
3.081,0.46,0.72,-0.27,-1.26,-2.60,3.04,-1.00,-0.18,-4.69,976.10
3.081,0.46,0.72,-0.27,-1.26,-2.60,3.04,-1.16,-0.31,-5.08,976.10
3.082,0.46,0.72,-0.27,1.50,-1.56,1.10,-1.16,-0.31,-5.08,976.10
3.084,0.64,0.85,-0.41,1.50,-1.56,1.10,-1.16,-0.31,-5.08,976.10
3.108,0.81,1.16,-0.46,1.50,-1.56,1.10,-1.16,-0.31,-5.08,976.10
3.11,0.81,1.16,-0.46,1.50,-1.56,1.10,-1.28,-1.19,-4.54,976.10
3.111,0.81,1.16,-0.46,3.13,-1.97,0.72,-1.28,-1.19,-4.54,976.10
3.12,0.81,1.16,-0.46,3.13,-1.97,0.72,-1.28,-1.19,-4.54,976.11
3.127,0.94,1.24,-0.58,3.13,-1.97,0.72,-1.28,-1.19,-4.54,976.11
3.145,0.98,0.97,-0.61,3.13,-1.97,0.72,-1.28,-1.19,-4.54,976.11
3.151,0.98,0.97,-0.61,3.13,-1.97,0.72,-1.33,-1.29,-3.75,976.11
3.154,0.98,0.97,-0.61,8.12,1.52,-2.83,-1.33,-1.29,-3.75,976.11
3.167,0.83,0.80,-0.38,8.12,1.52,-2.83,-1.33,-1.29,-3.75,976.11
3.193,0.83,0.80,-0.38,8.12,1.52,-2.83,-1.33,-1.29,-3.75,976.12
3.195,0.43,0.86,-0.44,8.12,1.52,-2.83,-1.33,-1.29,-3.75,976.12
3.196,0.43,0.86,-0.44,8.12,1.52,-2.83,-0.96,0.81,-2.46,976.12
3.197,0.43,0.86,-0.44,8.31,-0.46,-3.05,-0.96,0.81,-2.46,976.12
3.203,0.23,0.91,-0.41,8.31,-0.46,-3.05,-0.96,0.81,-2.46,976.12
3.222,0.40,0.95,-0.14,8.31,-0.46,-3.05,-0.96,0.81,-2.46,976.12
3.223,0.40,0.95,-0.14,8.31,-0.46,-3.05,-0.13,1.59,-0.85,976.12
3.224,0.40,0.95,-0.14,8.37,-0.42,-2.97,-0.13,1.59,-0.85,976.12
3.24,0.40,0.95,-0.14,8.37,-0.42,-2.97,-0.13,1.59,-0.85,976.12
3.247,0.48,1.01,-0.06,8.37,-0.42,-2.97,-0.13,1.59,-0.85,976.12
3.267,0.24,0.91,-0.06,8.37,-0.42,-2.97,-0.13,1.59,-0.85,976.12
3.268,0.24,0.91,-0.06,8.37,-0.42,-2.97,0.31,0.36,0.72,976.12
3.269,0.24,0.91,-0.06,4.33,0.35,-0.17,0.31,0.36,0.72,976.12
3.282,-0.02,0.73,-0.53,4.33,0.35,-0.17,0.31,0.36,0.72,976.12
3.3,-0.02,0.73,-0.53,4.33,0.35,-0.17,0.31,0.36,0.72,976.14
3.302,1.07,1.24,-0.79,4.33,0.35,-0.17,0.31,0.36,0.72,976.14
3.302,1.07,1.24,-0.79,4.33,0.35,-0.17,0.66,-0.91,1.75,976.14
3.303,1.07,1.24,-0.79,4.28,0.40,-2.42,0.66,-0.91,1.75,976.14
3.321,1.52,2.32,0.65,4.28,0.40,-2.42,0.66,-0.91,1.75,976.14
3.349,-1.55,1.16,-0.42,4.28,0.40,-2.42,0.66,-0.91,1.75,976.14
3.352,-1.55,1.16,-0.42,4.28,0.40,-2.42,1.21,-0.87,2.31,976.14
3.354,-1.55,1.16,-0.42,3.49,0.53,-1.95,1.21,-0.87,2.31,976.14
3.366,-1.55,1.16,-0.42,3.49,0.53,-1.95,1.21,-0.87,2.31,976.14
3.376,-2.06,0.73,-1.40,3.49,0.53,-1.95,1.21,-0.87,2.31,976.14
3.381,-0.49,1.30,-0.25,3.49,0.53,-1.95,1.21,-0.87,2.31,976.14
3.382,-0.49,1.30,-0.25,3.49,0.53,-1.95,1.67,1.64,-0.00,976.14
3.383,-0.49,1.30,-0.25,-7.59,4.95,-0.76,1.67,1.64,-0.00,976.14
3.399,0.76,1.47,-0.09,-7.59,4.95,-0.76,1.67,1.64,-0.00,976.14
3.419,0.76,1.47,-0.09,-7.59,4.95,-0.76,1.67,1.64,-0.00,976.15
3.419,0.25,2.53,-0.03,-7.59,4.95,-0.76,1.67,1.64,-0.00,976.15
3.42,0.25,2.53,-0.03,-7.59,4.95,-0.76,0.63,-1.44,1.34,976.15
3.42,0.25,2.53,-0.03,0.63,8.52,2.14,0.63,-1.44,1.34,976.15
3.439,-0.20,2.29,-0.05,0.63,8.52,2.14,0.63,-1.44,1.34,976.15
3.46,1.04,0.17,-0.65,0.63,8.52,2.14,0.63,-1.44,1.34,976.15
3.461,1.04,0.17,-0.65,0.63,8.52,2.14,0.46,-1.48,1.36,976.15
3.462,1.04,0.17,-0.65,0.36,8.50,2.33,0.46,-1.48,1.36,976.15
3.479,1.04,0.17,-0.65,0.36,8.50,2.33,0.46,-1.48,1.36,976.16
3.48,0.73,0.14,-0.77,0.36,8.50,2.33,0.46,-1.48,1.36,976.16
3.499,0.73,0.14,-0.77,3.38,-0.17,-1.12,0.46,-1.48,1.36,976.16
3.501,0.18,0.92,-0.60,3.38,-0.17,-1.12,0.46,-1.48,1.36,976.16
3.501,0.18,0.92,-0.60,3.38,-0.17,-1.12,0.47,0.32,0.88,976.16
3.519,0.25,1.22,-0.33,3.38,-0.17,-1.12,0.47,0.32,0.88,976.16
3.543,-0.11,1.07,-0.24,3.38,-0.17,-1.12,0.47,0.32,0.88,976.16
3.546,-0.11,1.07,-0.24,3.38,-0.17,-1.12,0.03,0.89,-0.11,976.16
3.547,-0.11,1.07,-0.24,-0.76,1.77,-0.20,0.03,0.89,-0.11,976.16
3.549,-0.11,1.07,-0.24,-0.76,1.77,-0.20,0.03,0.89,-0.11,976.16
3.568,-0.14,0.88,-0.22,-0.76,1.77,-0.20,0.03,0.89,-0.11,976.16
3.58,0.12,0.84,-0.22,-0.76,1.77,-0.20,0.03,0.89,-0.11,976.16
3.583,0.12,0.84,-0.22,-0.76,1.77,-0.20,0.10,0.19,0.25,976.16
3.585,0.12,0.84,-0.22,-0.86,1.77,-0.18,0.10,0.19,0.25,976.16
3.598,0.07,0.75,-0.33,-0.86,1.77,-0.18,0.10,0.19,0.25,976.16
3.601,0.07,0.75,-0.33,-0.86,1.77,-0.18,0.10,0.19,0.25,976.16
3.621,0.04,0.72,-0.35,-0.86,1.77,-0.18,0.10,0.19,0.25,976.16
3.624,0.04,0.72,-0.35,-0.86,1.77,-0.18,0.41,0.32,0.77,976.16
3.626,0.04,0.72,-0.35,-2.05,-0.53,1.22,0.41,0.32,0.77,976.16
3.638,-0.10,0.86,-0.27,-2.05,-0.53,1.22,0.41,0.32,0.77,976.16
3.659,-0.09,1.02,-0.26,-2.05,-0.53,1.22,0.41,0.32,0.77,976.16
3.662,-0.09,1.02,-0.26,-2.05,-0.53,1.22,0.56,0.55,1.14,976.16
3.663,-0.09,1.02,-0.26,-3.09,0.06,1.02,0.56,0.55,1.14,976.16
3.664,-0.09,1.02,-0.26,-3.09,0.06,1.02,0.56,0.55,1.14,976.16
3.676,0.28,0.99,-0.39,-3.09,0.06,1.02,0.56,0.55,1.14,976.16
3.696,0.57,0.89,-0.39,-3.09,0.06,1.02,0.56,0.55,1.14,976.16
3.698,0.57,0.89,-0.39,-3.09,0.06,1.02,0.76,0.38,1.72,976.16
3.699,0.57,0.89,-0.39,-3.65,0.38,1.21,0.76,0.38,1.72,976.16
3.717,0.26,0.83,-0.46,-3.65,0.38,1.21,0.76,0.38,1.72,976.16
3.72,0.26,0.83,-0.46,-3.65,0.38,1.21,0.76,0.38,1.72,976.15
3.737,0.12,0.60,-0.52,-3.65,0.38,1.21,0.76,0.38,1.72,976.15
3.739,0.12,0.60,-0.52,-3.65,0.38,1.21,0.85,1.12,1.93,976.15
3.739,0.12,0.60,-0.52,-0.34,1.12,0.11,0.85,1.12,1.93,976.15
3.755,0.42,0.68,-0.32,-0.34,1.12,0.11,0.85,1.12,1.93,976.15
3.776,0.49,0.76,-0.40,-0.34,1.12,0.11,0.85,1.12,1.93,976.15
3.777,0.49,0.76,-0.40,-0.34,1.12,0.11,0.73,1.28,2.20,976.15
3.778,0.49,0.76,-0.40,-1.43,-0.52,0.08,0.73,1.28,2.20,976.15
3.779,0.49,0.76,-0.40,-1.43,-0.52,0.08,0.73,1.28,2.20,976.15
3.795,0.68,0.69,-0.43,-1.43,-0.52,0.08,0.73,1.28,2.20,976.15
3.815,0.72,1.17,-0.42,-1.43,-0.52,0.08,0.73,1.28,2.20,976.15
3.816,0.72,1.17,-0.42,-1.43,-0.52,0.08,0.63,0.83,2.50,976.15
3.816,0.72,1.17,-0.42,-2.21,0.10,0.09,0.63,0.83,2.50,976.15
3.835,0.40,1.73,-0.27,-2.21,0.10,0.09,0.63,0.83,2.50,976.15
3.839,0.40,1.73,-0.27,-2.21,0.10,0.09,0.63,0.83,2.50,976.15
3.861,0.47,2.09,-0.36,-2.21,0.10,0.09,0.63,0.83,2.50,976.15
3.862,0.47,2.09,-0.36,-2.21,0.10,0.09,0.89,1.54,2.66,976.15
3.863,0.47,2.09,-0.36,-0.54,5.85,0.30,0.89,1.54,2.66,976.15
3.876,1.21,2.48,-0.34,-0.54,5.85,0.30,0.89,1.54,2.66,976.15
3.894,0.24,1.77,-0.43,-0.54,5.85,0.30,0.89,1.54,2.66,976.15
3.896,0.24,1.77,-0.43,-0.54,5.85,0.30,0.88,1.36,3.10,976.15
3.896,0.24,1.77,-0.43,-1.05,15.53,0.13,0.88,1.36,3.10,976.15
3.901,0.24,1.77,-0.43,-1.05,15.53,0.13,0.88,1.36,3.10,976.16
3.915,-0.68,0.74,-0.80,-1.05,15.53,0.13,0.88,1.36,3.10,976.16
3.934,0.54,-0.40,-0.72,-1.05,15.53,0.13,0.88,1.36,3.10,976.16
3.936,0.54,-0.40,-0.72,-1.05,15.53,0.13,0.27,-0.46,2.42,976.16
3.939,0.54,-0.40,-0.72,-1.41,16.02,0.32,0.27,-0.46,2.42,976.16
3.961,2.48,-0.82,-1.07,-1.41,16.02,0.32,0.27,-0.46,2.42,976.16
3.963,2.48,-0.82,-1.07,-1.41,16.02,0.32,0.27,-0.46,2.42,976.16
3.973,1.21,-0.23,-0.80,-1.41,16.02,0.32,0.27,-0.46,2.42,976.16
3.974,1.21,-0.23,-0.80,-1.41,16.02,0.32,0.15,-3.14,2.86,976.16
3.975,1.21,-0.23,-0.80,0.05,-5.27,-3.43,0.15,-3.14,2.86,976.16
3.993,0.03,0.22,-0.31,0.05,-5.27,-3.43,0.15,-3.14,2.86,976.16
4.013,-0.04,0.13,-0.05,0.05,-5.27,-3.43,0.15,-3.14,2.86,976.16
4.016,-0.04,0.13,-0.05,0.05,-5.27,-3.43,-0.37,0.04,0.59,976.16
4.017,-0.04,0.13,-0.05,-3.73,-3.16,1.15,-0.37,0.04,0.59,976.16
4.019,-0.04,0.13,-0.05,-3.73,-3.16,1.15,-0.37,0.04,0.59,976.16
4.033,-0.19,-0.11,-0.20,-3.73,-3.16,1.15,-0.37,0.04,0.59,976.16
4.07,0.22,0.16,-0.07,-3.73,-3.16,1.15,-0.37,0.04,0.59,976.16
4.073,0.22,0.16,-0.07,-3.73,-3.16,1.15,-1.50,1.05,-1.67,976.16
4.075,0.22,0.16,-0.07,-3.60,-3.88,0.60,-1.50,1.05,-1.67,976.16
4.078,0.32,0.29,-0.03,-3.60,-3.88,0.60,-1.50,1.05,-1.67,976.16
4.08,0.32,0.29,-0.03,-3.60,-3.88,0.60,-1.50,1.05,-1.67,976.15
4.101,0.01,0.28,0.06,-3.60,-3.88,0.60,-1.50,1.05,-1.67,976.15
4.104,0.01,0.28,0.06,-5.81,-4.24,2.85,-1.50,1.05,-1.67,976.15
4.106,0.01,0.28,0.06,-5.81,-4.24,2.85,-2.00,0.35,-2.80,976.15
4.112,0.03,0.37,0.04,-5.81,-4.24,2.85,-2.00,0.35,-2.80,976.15
4.131,0.23,0.52,-0.04,-5.81,-4.24,2.85,-2.00,0.35,-2.80,976.15
4.133,0.23,0.52,-0.04,-5.81,-4.24,2.85,-1.95,-0.07,-3.60,976.15
4.133,0.23,0.52,-0.04,-5.10,-2.67,3.56,-1.95,-0.07,-3.60,976.15
4.138,0.23,0.52,-0.04,-5.10,-2.67,3.56,-1.95,-0.07,-3.60,976.15
4.152,0.24,0.60,-0.07,-5.10,-2.67,3.56,-1.95,-0.07,-3.60,976.15
4.17,0.25,0.69,-0.13,-5.10,-2.67,3.56,-1.95,-0.07,-3.60,976.15
4.172,0.25,0.69,-0.13,-5.10,-2.67,3.56,-2.03,-0.86,-4.08,976.15
4.173,0.25,0.69,-0.13,-3.79,-3.72,3.12,-2.03,-0.86,-4.08,976.15
4.19,0.40,0.78,-0.33,-3.79,-3.72,3.12,-2.03,-0.86,-4.08,976.15
4.198,0.40,0.78,-0.33,-3.79,-3.72,3.12,-2.03,-0.86,-4.08,976.14
4.212,0.60,0.80,-0.48,-3.79,-3.72,3.12,-2.03,-0.86,-4.08,976.14
4.215,0.60,0.80,-0.48,-3.79,-3.72,3.12,-2.12,-1.35,-4.53,976.14
4.217,0.60,0.80,-0.48,-0.20,-1.65,0.70,-2.12,-1.35,-4.53,976.14
4.23,1.01,0.95,-0.60,-0.20,-1.65,0.70,-2.12,-1.35,-4.53,976.14
4.25,1.18,1.11,-0.56,-0.20,-1.65,0.70,-2.12,-1.35,-4.53,976.14
4.251,1.18,1.11,-0.56,-0.20,-1.65,0.70,-2.27,-1.33,-4.61,976.14
4.252,1.18,1.11,-0.56,7.61,0.29,-3.52,-2.27,-1.33,-4.61,976.14
4.274,1.18,1.11,-0.56,7.61,0.29,-3.52,-2.27,-1.33,-4.61,976.14
4.276,0.76,1.09,-0.55,7.61,0.29,-3.52,-2.27,-1.33,-4.61,976.14
4.289,0.61,1.05,-0.63,7.61,0.29,-3.52,-2.27,-1.33,-4.61,976.14
4.29,0.61,1.05,-0.63,7.61,0.29,-3.52,-1.99,0.43,-4.51,976.14
4.291,0.61,1.05,-0.63,9.07,0.05,-4.18,-1.99,0.43,-4.51,976.14
4.311,0.53,0.94,-0.52,9.07,0.05,-4.18,-1.99,0.43,-4.51,976.14
4.319,0.53,0.94,-0.52,9.07,0.05,-4.18,-1.99,0.43,-4.51,976.15
4.33,0.30,0.93,-0.43,9.07,0.05,-4.18,-1.99,0.43,-4.51,976.15
4.333,0.30,0.93,-0.43,9.07,0.05,-4.18,-0.89,1.79,-3.45,976.15
4.335,0.30,0.93,-0.43,7.22,0.82,-4.60,-0.89,1.79,-3.45,976.15
4.35,0.33,0.99,-0.13,7.22,0.82,-4.60,-0.89,1.79,-3.45,976.15
4.385,0.47,0.98,-0.24,7.22,0.82,-4.60,-0.89,1.79,-3.45,976.15
4.388,0.47,0.98,-0.24,7.22,0.82,-4.60,-0.23,0.23,-1.50,976.15
4.39,0.47,0.98,-0.24,5.10,0.31,-1.70,-0.23,0.23,-1.50,976.15
4.391,0.47,0.98,-0.24,5.10,0.31,-1.70,-0.23,0.23,-1.50,976.16
4.392,0.42,0.79,-0.37,5.10,0.31,-1.70,-0.23,0.23,-1.50,976.16
4.417,0.43,0.70,-0.28,5.10,0.31,-1.70,-0.23,0.23,-1.50,976.16
4.42,0.43,0.70,-0.28,5.10,0.31,-1.70,0.05,-0.52,0.45,976.16
4.421,0.43,0.70,-0.28,4.87,0.28,-1.69,0.05,-0.52,0.45,976.16
4.428,0.38,0.78,-0.14,4.87,0.28,-1.69,0.05,-0.52,0.45,976.16
4.438,0.38,0.78,-0.14,4.87,0.28,-1.69,0.05,-0.52,0.45,976.16
4.448,0.06,0.91,-0.38,4.87,0.28,-1.69,0.05,-0.52,0.45,976.16
4.451,0.06,0.91,-0.38,4.87,0.28,-1.69,0.76,0.17,1.70,976.16
4.452,0.06,0.91,-0.38,4.58,-1.78,-1.31,0.76,0.17,1.70,976.16
4.48,0.79,2.27,-1.16,4.58,-1.78,-1.31,0.76,0.17,1.70,976.16
4.489,-1.37,2.42,1.67,4.58,-1.78,-1.31,0.76,0.17,1.70,976.16
4.49,-1.37,2.42,1.67,4.58,-1.78,-1.31,1.49,-0.06,2.53,976.16
4.49,-1.37,2.42,1.67,-2.03,9.01,2.19,1.49,-0.06,2.53,976.16
4.508,-1.37,2.42,1.67,-2.03,9.01,2.19,1.49,-0.06,2.53,976.16
4.511,-2.26,0.52,-1.43,-2.03,9.01,2.19,1.49,-0.06,2.53,976.16
4.529,-0.14,0.93,-0.42,-2.03,9.01,2.19,1.49,-0.06,2.53,976.16
4.532,-0.14,0.93,-0.42,-2.03,9.01,2.19,1.94,0.67,1.44,976.16
4.534,-0.14,0.93,-0.42,-2.56,9.05,2.83,1.94,0.67,1.44,976.16
4.547,1.14,1.72,-0.01,-2.56,9.05,2.83,1.94,0.67,1.44,976.16
4.558,1.14,1.72,-0.01,-2.56,9.05,2.83,1.94,0.67,1.44,976.16
4.581,1.14,1.72,-0.01,-5.44,1.31,-3.12,1.94,0.67,1.44,976.16
4.582,1.07,1.03,-0.36,-5.44,1.31,-3.12,1.94,0.67,1.44,976.16
4.583,1.07,1.03,-0.36,-5.44,1.31,-3.12,1.21,-1.30,1.96,976.16
4.587,0.49,0.84,-0.73,-5.44,1.31,-3.12,1.21,-1.30,1.96,976.16
4.605,0.53,1.76,-0.44,-5.44,1.31,-3.12,1.21,-1.30,1.96,976.16
4.606,0.53,1.76,-0.44,-5.44,1.31,-3.12,0.71,-0.84,0.96,976.16
4.606,0.53,1.76,-0.44,5.19,2.91,-1.74,0.71,-0.84,0.96,976.16
4.617,0.53,1.76,-0.44,5.19,2.91,-1.74,0.71,-0.84,0.96,976.17
4.629,0.09,1.92,-0.28,5.19,2.91,-1.74,0.71,-0.84,0.96,976.17
4.648,-0.11,0.89,-0.40,5.19,2.91,-1.74,0.71,-0.84,0.96,976.17
4.649,-0.11,0.89,-0.40,5.19,2.91,-1.74,0.14,0.08,0.03,976.17
4.65,-0.11,0.89,-0.40,5.08,2.88,-1.67,0.14,0.08,0.03,976.17
4.664,0.33,0.69,-0.46,5.08,2.88,-1.67,0.14,0.08,0.03,976.17
4.677,0.33,0.69,-0.46,5.08,2.88,-1.67,0.14,0.08,0.03,976.18
4.683,0.38,0.78,-0.45,5.08,2.88,-1.67,0.14,0.08,0.03,976.18
4.684,0.38,0.78,-0.45,5.08,2.88,-1.67,0.10,0.20,0.39,976.18
4.684,0.38,0.78,-0.45,-0.89,2.43,-0.36,0.10,0.20,0.39,976.18
4.704,0.38,0.72,-0.31,-0.89,2.43,-0.36,0.10,0.20,0.39,976.18
4.725,0.09,0.78,-0.24,-0.89,2.43,-0.36,0.10,0.20,0.39,976.18
4.729,0.09,0.78,-0.24,-0.89,2.43,-0.36,0.01,0.27,0.19,976.18
4.731,0.09,0.78,-0.24,0.75,-1.51,0.07,0.01,0.27,0.19,976.18
4.738,0.09,0.78,-0.24,0.75,-1.51,0.07,0.01,0.27,0.19,976.17
4.746,-0.20,0.94,-0.26,0.75,-1.51,0.07,0.01,0.27,0.19,976.17
4.768,-0.13,0.97,-0.24,0.75,-1.51,0.07,0.01,0.27,0.19,976.17
4.772,-0.13,0.97,-0.24,0.75,-1.51,0.07,0.08,0.29,0.10,976.17
4.773,-0.13,0.97,-0.24,0.66,-1.47,0.07,0.08,0.29,0.10,976.17
4.786,0.13,0.85,-0.28,0.66,-1.47,0.07,0.08,0.29,0.10,976.17
4.815,0.13,0.85,-0.28,0.66,-1.47,0.07,0.08,0.29,0.10,976.18
4.816,0.33,0.80,-0.18,0.66,-1.47,0.07,0.08,0.29,0.10,976.18
4.817,0.33,0.80,-0.18,0.66,-1.47,0.07,0.24,-0.34,0.73,976.18
4.818,0.33,0.80,-0.18,-2.94,0.19,0.90,0.24,-0.34,0.73,976.18
4.822,0.13,0.86,-0.18,-2.94,0.19,0.90,0.24,-0.34,0.73,976.18
4.842,-0.13,0.93,-0.31,-2.94,0.19,0.90,0.24,-0.34,0.73,976.18
4.845,-0.13,0.93,-0.31,-2.94,0.19,0.90,0.53,0.10,1.03,976.18
4.846,-0.13,0.93,-0.31,-1.53,-0.15,1.44,0.53,0.10,1.03,976.18
4.864,-0.13,0.93,-0.31,-1.53,-0.15,1.44,0.53,0.10,1.03,976.18
4.865,-0.08,0.93,-0.37,-1.53,-0.15,1.44,0.53,0.10,1.03,976.18
4.885,0.33,0.84,-0.37,-1.53,-0.15,1.44,0.53,0.10,1.03,976.18
4.886,0.33,0.84,-0.37,-1.53,-0.15,1.44,0.80,0.56,1.46,976.18
4.887,0.33,0.84,-0.37,-2.07,0.13,1.61,0.80,0.56,1.46,976.18
4.902,0.42,0.84,-0.41,-2.07,0.13,1.61,0.80,0.56,1.46,976.18
4.918,0.42,0.84,-0.41,-2.07,0.13,1.61,0.80,0.56,1.46,976.20
4.923,0.37,0.74,-0.62,-2.07,0.13,1.61,0.80,0.56,1.46,976.20
4.927,0.37,0.74,-0.62,-2.07,0.13,1.61,0.89,0.71,1.90,976.20
4.93,0.37,0.74,-0.62,-1.67,0.56,0.21,0.89,0.71,1.90,976.20
4.941,0.67,0.77,-0.41,-1.67,0.56,0.21,0.89,0.71,1.90,976.20
4.965,0.67,0.77,-0.41,0.21,0.13,-0.76,0.89,0.71,1.90,976.20
4.967,0.43,0.83,-0.44,0.21,0.13,-0.76,0.89,0.71,1.90,976.20
4.968,0.43,0.83,-0.44,0.21,0.13,-0.76,0.79,1.05,1.93,976.20
4.978,0.43,0.83,-0.44,0.21,0.13,-0.76,0.79,1.05,1.93,976.20
4.981,0.30,0.75,-0.60,0.21,0.13,-0.76,0.79,1.05,1.93,976.20
5.0,0.66,1.04,-0.50,0.21,0.13,-0.76,0.79,1.05,1.93,976.20
5.003,0.66,1.04,-0.50,0.21,0.13,-0.76,0.72,1.32,1.95,976.20
5.004,0.66,1.04,-0.50,-0.55,0.62,-0.79,0.72,1.32,1.95,976.20
5.021,0.44,1.51,-0.42,-0.55,0.62,-0.79,0.72,1.32,1.95,976.20
5.038,0.44,1.51,-0.42,-0.55,0.62,-0.79,0.72,1.32,1.95,976.20
5.042,0.35,2.04,-0.38,-0.55,0.62,-0.79,0.72,1.32,1.95,976.20
5.043,0.35,2.04,-0.38,-0.55,0.62,-0.79,0.86,1.74,2.25,976.20
5.045,0.35,2.04,-0.38,-1.66,4.33,-1.13,0.86,1.74,2.25,976.20
5.065,1.01,2.34,-0.29,-1.66,4.33,-1.13,0.86,1.74,2.25,976.20
5.089,0.72,1.78,-0.18,-1.66,4.33,-1.13,0.86,1.74,2.25,976.20
5.091,0.72,1.78,-0.18,-1.66,4.33,-1.13,0.81,1.42,2.88,976.20
5.092,0.72,1.78,-0.18,-0.32,14.31,0.88,0.81,1.42,2.88,976.20
5.097,0.72,1.78,-0.18,-0.32,14.31,0.88,0.81,1.42,2.88,976.20
5.099,-0.13,0.99,-0.45,-0.32,14.31,0.88,0.81,1.42,2.88,976.20
5.119,-0.24,0.20,-0.49,-0.32,14.31,0.88,0.81,1.42,2.88,976.20
5.122,-0.24,0.20,-0.49,-0.32,14.31,0.88,0.25,0.38,2.28,976.20
5.124,-0.24,0.20,-0.49,-0.85,14.76,0.82,0.25,0.38,2.28,976.20
5.141,0.93,-0.88,-1.06,-0.85,14.76,0.82,0.25,0.38,2.28,976.20
5.157,0.93,-0.88,-1.06,-0.85,14.76,0.82,0.25,0.38,2.28,976.21
5.159,2.13,-0.75,-1.16,-0.85,14.76,0.82,0.25,0.38,2.28,976.21
5.159,2.13,-0.75,-1.16,-0.85,14.76,0.82,0.16,-2.47,2.12,976.21
5.16,2.13,-0.75,-1.16,-5.73,-3.60,-2.12,0.16,-2.47,2.12,976.21
5.178,0.91,0.22,-0.38,-5.73,-3.60,-2.12,0.16,-2.47,2.12,976.21
5.199,-0.05,0.53,0.11,-5.73,-3.60,-2.12,0.16,-2.47,2.12,976.21
5.202,-0.05,0.53,0.11,-5.73,-3.60,-2.12,-0.01,-0.79,1.15,976.21
5.204,-0.05,0.53,0.11,2.11,-4.23,-0.03,-0.01,-0.79,1.15,976.21
5.218,-0.05,0.53,0.11,2.11,-4.23,-0.03,-0.01,-0.79,1.15,976.21
5.22,-0.19,0.10,-0.28,2.11,-4.23,-0.03,-0.01,-0.79,1.15,976.21
5.238,0.04,-0.00,-0.08,2.11,-4.23,-0.03,-0.01,-0.79,1.15,976.21
5.241,0.04,-0.00,-0.08,2.11,-4.23,-0.03,-0.56,2.10,-1.37,976.21
5.242,0.04,-0.00,-0.08,1.97,-4.67,-0.75,-0.56,2.10,-1.37,976.21
5.261,0.08,0.21,-0.08,1.97,-4.67,-0.75,-0.56,2.10,-1.37,976.21
5.29,0.08,0.21,-0.08,1.97,-4.67,-0.75,-0.56,2.10,-1.37,976.21
5.292,0.07,0.38,-0.14,1.97,-4.67,-0.75,-0.56,2.10,-1.37,976.21
5.294,0.07,0.38,-0.14,1.97,-4.67,-0.75,-1.05,0.49,-2.29,976.21
5.295,0.07,0.38,-0.14,-7.55,-4.42,2.12,-1.05,0.49,-2.29,976.21
5.306,0.26,0.42,-0.18,-7.55,-4.42,2.12,-1.05,0.49,-2.29,976.21
5.316,0.44,0.47,-0.20,-7.55,-4.42,2.12,-1.05,0.49,-2.29,976.21
5.319,0.44,0.47,-0.20,-7.55,-4.42,2.12,-1.33,-0.82,-2.83,976.21
5.321,0.44,0.47,-0.20,-3.96,-2.20,1.70,-1.33,-0.82,-2.83,976.21
5.337,0.42,0.59,-0.12,-3.96,-2.20,1.70,-1.33,-0.82,-2.83,976.21
5.34,0.42,0.59,-0.12,-3.96,-2.20,1.70,-1.33,-0.82,-2.83,976.20
5.364,0.29,0.69,-0.15,-3.96,-2.20,1.70,-1.33,-0.82,-2.83,976.20
5.366,0.29,0.69,-0.15,-3.96,-2.20,1.70,-1.54,-0.67,-3.58,976.20
5.368,0.29,0.69,-0.15,-2.85,-3.19,1.42,-1.54,-0.67,-3.58,976.20
5.376,0.17,0.77,-0.27,-2.85,-3.19,1.42,-1.54,-0.67,-3.58,976.20
5.395,0.35,0.95,-0.42,-2.85,-3.19,1.42,-1.54,-0.67,-3.58,976.20
5.397,0.35,0.95,-0.42,-2.85,-3.19,1.42,-1.40,-0.62,-4.14,976.20
5.398,0.35,0.95,-0.42,-1.10,-1.52,1.04,-1.40,-0.62,-4.14,976.20
5.399,0.35,0.95,-0.42,-1.10,-1.52,1.04,-1.40,-0.62,-4.14,976.20
5.415,0.71,1.13,-0.45,-1.10,-1.52,1.04,-1.40,-0.62,-4.14,976.20
5.435,0.82,1.05,-0.44,-1.10,-1.52,1.04,-1.40,-0.62,-4.14,976.20
5.438,0.82,1.05,-0.44,-1.10,-1.52,1.04,-1.59,-1.21,-4.21,976.20
5.44,0.82,1.05,-0.44,3.69,1.28,-1.87,-1.59,-1.21,-4.21,976.20
5.454,0.70,0.97,-0.42,3.69,1.28,-1.87,-1.59,-1.21,-4.21,976.20
5.458,0.70,0.97,-0.42,3.69,1.28,-1.87,-1.59,-1.21,-4.21,976.19
5.483,0.56,1.11,-0.35,3.69,1.28,-1.87,-1.59,-1.21,-4.21,976.19
5.485,0.56,1.11,-0.35,3.69,1.28,-1.87,-1.81,-0.48,-4.43,976.19
5.486,0.56,1.11,-0.35,5.26,0.82,-2.45,-1.81,-0.48,-4.43,976.19
5.502,0.51,1.24,-0.39,5.26,0.82,-2.45,-1.81,-0.48,-4.43,976.19
5.515,0.35,1.12,-0.42,5.26,0.82,-2.45,-1.81,-0.48,-4.43,976.19
5.518,0.35,1.12,-0.42,5.26,0.82,-2.45,-1.42,0.72,-4.11,976.19
5.52,0.35,1.12,-0.42,6.27,1.28,-2.46,-1.42,0.72,-4.11,976.19
5.521,0.35,1.12,-0.42,6.27,1.28,-2.46,-1.42,0.72,-4.11,976.20
5.534,0.26,1.19,-0.34,6.27,1.28,-2.46,-1.42,0.72,-4.11,976.20
5.555,0.10,1.12,-0.16,6.27,1.28,-2.46,-1.42,0.72,-4.11,976.20
5.558,0.10,1.12,-0.16,6.27,1.28,-2.46,-0.67,1.00,-3.18,976.20
5.56,0.10,1.12,-0.16,3.87,1.73,-1.82,-0.67,1.00,-3.18,976.20
5.581,0.23,0.86,0.02,3.87,1.73,-1.82,-0.67,1.00,-3.18,976.20
5.582,0.23,0.86,0.02,3.87,1.73,-1.82,-0.67,1.00,-3.18,976.21
5.593,0.29,0.73,-0.07,3.87,1.73,-1.82,-0.67,1.00,-3.18,976.21
5.594,0.29,0.73,-0.07,3.87,1.73,-1.82,-0.25,0.18,-1.57,976.21
5.598,0.29,0.73,-0.07,4.38,1.81,-1.87,-0.25,0.18,-1.57,976.21
5.612,0.23,0.68,-0.16,4.38,1.81,-1.87,-0.25,0.18,-1.57,976.21
5.632,0.34,0.73,-0.14,4.38,1.81,-1.87,-0.25,0.18,-1.57,976.21
5.635,0.34,0.73,-0.14,4.38,1.81,-1.87,0.13,0.05,-0.02,976.21
5.636,0.34,0.73,-0.14,4.42,-1.94,0.48,0.13,0.05,-0.02,976.21
5.637,0.34,0.73,-0.14,4.42,-1.94,0.48,0.13,0.05,-0.02,976.21
5.654,0.38,0.84,-0.11,4.42,-1.94,0.48,0.13,0.05,-0.02,976.21
5.684,0.32,0.95,-0.01,4.42,-1.94,0.48,0.13,0.05,-0.02,976.21
5.687,0.32,0.95,-0.01,4.42,-1.94,0.48,0.51,0.18,1.35,976.21
5.689,0.32,0.95,-0.01,4.79,-1.18,0.53,0.51,0.18,1.35,976.21
5.694,0.19,0.90,-0.06,4.79,-1.18,0.53,0.51,0.18,1.35,976.21
5.697,0.19,0.90,-0.06,4.79,-1.18,0.53,0.51,0.18,1.35,976.21
5.717,-0.31,0.94,-0.33,4.79,-1.18,0.53,0.51,0.18,1.35,976.21
5.723,-0.31,0.94,-0.33,4.79,-1.18,0.53,0.82,0.35,1.99,976.21
5.727,-0.31,0.94,-0.33,3.96,-1.19,0.84,0.82,0.35,1.99,976.21
5.735,0.81,1.97,-1.43,3.96,-1.19,0.84,0.82,0.35,1.99,976.21
5.751,-0.44,2.15,1.03,3.96,-1.19,0.84,0.82,0.35,1.99,976.21
5.752,-0.44,2.15,1.03,3.96,-1.19,0.84,1.23,-1.30,2.67,976.21
5.753,-0.44,2.15,1.03,1.90,3.08,-3.76,1.23,-1.30,2.67,976.21
5.757,-0.44,2.15,1.03,1.90,3.08,-3.76,1.23,-1.30,2.67,976.21
5.772,-2.52,0.38,-1.70,1.90,3.08,-3.76,1.23,-1.30,2.67,976.21
5.791,-0.69,0.32,-0.70,1.90,3.08,-3.76,1.23,-1.30,2.67,976.21
5.793,-0.69,0.32,-0.70,1.90,3.08,-3.76,1.62,-1.26,1.27,976.21
5.794,-0.69,0.32,-0.70,-12.42,0.12,-1.63,1.62,-1.26,1.27,976.21
5.81,1.74,1.47,0.19,-12.42,0.12,-1.63,1.62,-1.26,1.27,976.21
5.815,1.74,1.47,0.19,-12.42,0.12,-1.63,1.62,-1.26,1.27,976.22
5.83,0.78,1.62,0.12,-12.42,0.12,-1.63,1.62,-1.26,1.27,976.22
5.832,0.78,1.62,0.12,-12.42,0.12,-1.63,0.81,-1.19,2.00,976.22
5.833,0.78,1.62,0.12,-12.78,0.27,-1.28,0.81,-1.19,2.00,976.22
5.851,-0.02,1.48,-0.22,-12.78,0.27,-1.28,0.81,-1.19,2.00,976.22
5.884,0.31,1.41,-0.38,-12.78,0.27,-1.28,0.81,-1.19,2.00,976.22
5.888,0.31,1.41,-0.38,-12.78,0.27,-1.28,0.73,-0.26,1.03,976.22
5.89,0.31,1.41,-0.38,6.87,5.92,3.67,0.73,-0.26,1.03,976.22
5.892,0.31,1.41,-0.38,6.87,5.92,3.67,0.73,-0.26,1.03,976.23
5.916,0.59,1.22,-0.53,6.87,5.92,3.67,0.73,-0.26,1.03,976.23
5.919,0.39,0.99,-0.56,6.87,5.92,3.67,0.73,-0.26,1.03,976.23
5.92,0.39,0.99,-0.56,6.87,5.92,3.67,0.59,-0.10,0.57,976.23
5.922,0.39,0.99,-0.56,2.66,2.87,-1.16,0.59,-0.10,0.57,976.23
5.93,0.02,0.92,-0.50,2.66,2.87,-1.16,0.59,-0.10,0.57,976.23
5.938,0.02,0.92,-0.50,2.66,2.87,-1.16,0.59,-0.10,0.57,976.23
5.949,0.04,0.94,-0.41,2.66,2.87,-1.16,0.59,-0.10,0.57,976.23
5.951,0.04,0.94,-0.41,2.66,2.87,-1.16,0.28,0.52,0.21,976.23
5.952,0.04,0.94,-0.41,2.47,2.88,-1.08,0.28,0.52,0.21,976.23
5.976,0.22,0.91,-0.34,2.47,2.88,-1.08,0.28,0.52,0.21,976.23
6.001,0.16,0.86,-0.29,2.47,2.88,-1.08,0.28,0.52,0.21,976.23
6.004,0.16,0.86,-0.29,2.47,2.88,-1.08,0.14,0.26,0.30,976.23
6.005,0.16,0.86,-0.29,-0.96,0.15,-0.31,0.14,0.26,0.30,976.23
6.006,0.16,0.86,-0.29,-0.96,0.15,-0.31,0.14,0.26,0.30,976.23
6.008,0.03,0.76,-0.33,-0.96,0.15,-0.31,0.14,0.26,0.30,976.23
6.027,-0.04,0.73,-0.35,-0.96,0.15,-0.31,0.14,0.26,0.30,976.23
6.03,-0.04,0.73,-0.35,-0.96,0.15,-0.31,0.26,0.19,0.50,976.23
6.031,-0.04,0.73,-0.35,-1.52,-1.11,0.65,0.26,0.19,0.50,976.23
6.048,0.01,0.86,-0.34,-1.52,-1.11,0.65,0.26,0.19,0.50,976.23
6.056,0.01,0.86,-0.34,-1.52,-1.11,0.65,0.26,0.19,0.50,976.24
6.081,0.24,1.00,-0.29,-1.52,-1.11,0.65,0.26,0.19,0.50,976.24
6.084,0.24,1.00,-0.29,-1.52,-1.11,0.65,0.36,0.02,0.82,976.24
6.085,0.24,1.00,-0.29,-1.78,-0.97,0.76,0.36,0.02,0.82,976.24
6.089,0.27,0.94,-0.25,-1.78,-0.97,0.76,0.36,0.02,0.82,976.24
6.112,0.11,0.82,-0.27,-1.78,-0.97,0.76,0.36,0.02,0.82,976.24
6.116,0.11,0.82,-0.27,-1.78,-0.97,0.76,0.56,0.14,1.13,976.24
6.118,0.11,0.82,-0.27,-0.97,0.67,1.21,0.56,0.14,1.13,976.24
6.119,0.11,0.82,-0.27,-0.97,0.67,1.21,0.56,0.14,1.13,976.24
6.126,0.03,0.92,-0.44,-0.97,0.67,1.21,0.56,0.14,1.13,976.24
6.165,0.03,0.92,-0.44,-2.20,0.67,0.22,0.56,0.14,1.13,976.24
6.168,0.18,0.97,-0.53,-2.20,0.67,0.22,0.56,0.14,1.13,976.24
6.17,0.18,0.97,-0.53,-2.20,0.67,0.22,0.87,0.82,1.42,976.24
6.171,0.32,0.81,-0.50,-2.20,0.67,0.22,0.87,0.82,1.42,976.24
6.176,0.32,0.81,-0.50,-2.20,0.67,0.22,0.87,0.82,1.42,976.24
6.199,0.49,0.67,-0.48,-2.20,0.67,0.22,0.87,0.82,1.42,976.24
6.204,0.49,0.67,-0.48,-2.20,0.67,0.22,0.94,1.30,1.89,976.24
6.206,0.49,0.67,-0.48,-2.97,1.09,0.33,0.94,1.30,1.89,976.24
6.206,0.52,0.64,-0.42,-2.97,1.09,0.33,0.94,1.30,1.89,976.24
6.225,0.48,0.84,-0.39,-2.97,1.09,0.33,0.94,1.30,1.89,976.24
6.229,0.48,0.84,-0.39,-2.97,1.09,0.33,0.81,1.53,2.05,976.24
6.23,0.48,0.84,-0.39,-0.51,-0.31,-0.23,0.81,1.53,2.05,976.24
6.235,0.48,0.84,-0.39,-0.51,-0.31,-0.23,0.81,1.53,2.05,976.23
6.247,0.43,1.06,-0.45,-0.51,-0.31,-0.23,0.81,1.53,2.05,976.23
6.265,0.54,1.33,-0.48,-0.51,-0.31,-0.23,0.81,1.53,2.05,976.23
6.268,0.54,1.33,-0.48,-0.51,-0.31,-0.23,0.74,1.30,2.20,976.23
6.27,0.54,1.33,-0.48,-0.94,3.81,-0.05,0.74,1.30,2.20,976.23
6.297,0.57,2.14,-0.42,-0.94,3.81,-0.05,0.74,1.30,2.20,976.23
6.299,0.57,2.14,-0.42,-0.94,3.81,-0.05,0.74,1.30,2.20,976.24
6.304,0.74,2.41,-0.48,-0.94,3.81,-0.05,0.74,1.30,2.20,976.24
6.305,0.74,2.41,-0.48,-0.94,3.81,-0.05,0.92,1.70,2.74,976.24
6.306,0.74,2.41,-0.48,-1.88,4.55,-0.23,0.92,1.70,2.74,976.24
6.324,0.61,1.83,-0.34,-1.88,4.55,-0.23,0.92,1.70,2.74,976.24
6.344,-0.16,1.01,-0.46,-1.88,4.55,-0.23,0.92,1.70,2.74,976.24
6.345,-0.16,1.01,-0.46,-1.88,4.55,-0.23,0.73,1.57,2.72,976.24
6.346,-0.16,1.01,-0.46,-1.15,15.46,-0.21,0.73,1.57,2.72,976.24
6.36,-0.16,1.01,-0.46,-1.15,15.46,-0.21,0.73,1.57,2.72,976.24
6.366,-0.14,0.22,-0.67,-1.15,15.46,-0.21,0.73,1.57,2.72,976.24
6.388,0.93,-0.67,-0.79,-1.15,15.46,-0.21,0.73,1.57,2.72,976.24
6.39,0.93,-0.67,-0.79,-1.15,15.46,-0.21,0.38,-0.51,2.04,976.24
6.391,0.93,-0.67,-0.79,-5.61,-2.83,-2.21,0.38,-0.51,2.04,976.24
6.403,2.18,-0.70,-1.17,-5.61,-2.83,-2.21,0.38,-0.51,2.04,976.24
6.415,2.18,-0.70,-1.17,-5.61,-2.83,-2.21,0.38,-0.51,2.04,976.24
6.423,1.06,0.09,-0.45,-5.61,-2.83,-2.21,0.38,-0.51,2.04,976.24
6.424,1.06,0.09,-0.45,-5.61,-2.83,-2.21,0.23,-2.63,2.22,976.24
6.425,1.06,0.09,-0.45,-5.42,-2.08,-1.35,0.23,-2.63,2.22,976.24
6.443,0.03,0.34,0.12,-5.42,-2.08,-1.35,0.23,-2.63,2.22,976.24
6.469,0.03,0.34,0.12,2.94,-4.87,-0.38,0.23,-2.63,2.22,976.24
6.472,-0.17,-0.00,-0.20,2.94,-4.87,-0.38,0.23,-2.63,2.22,976.24
6.474,-0.17,-0.00,-0.20,2.94,-4.87,-0.38,-0.59,1.25,-0.23,976.24
6.479,-0.17,-0.00,-0.20,2.94,-4.87,-0.38,-0.59,1.25,-0.23,976.24
6.491,-0.01,-0.03,-0.11,2.94,-4.87,-0.38,-0.59,1.25,-0.23,976.24
6.502,0.13,0.21,0.06,2.94,-4.87,-0.38,-0.59,1.25,-0.23,976.24
6.504,0.13,0.21,0.06,2.94,-4.87,-0.38,-1.30,1.64,-1.94,976.24
6.505,0.13,0.21,0.06,-7.73,-4.16,2.90,-1.30,1.64,-1.94,976.24
6.522,-0.06,0.23,-0.10,-7.73,-4.16,2.90,-1.30,1.64,-1.94,976.24
6.535,-0.06,0.23,-0.10,-7.73,-4.16,2.90,-1.30,1.64,-1.94,976.24
6.541,0.15,0.28,-0.17,-7.73,-4.16,2.90,-1.30,1.64,-1.94,976.24
6.543,0.15,0.28,-0.17,-7.73,-4.16,2.90,-1.64,-0.08,-2.55,976.24
6.544,0.15,0.28,-0.17,-7.07,-5.04,2.54,-1.64,-0.08,-2.55,976.24
6.561,0.42,0.44,-0.04,-7.07,-5.04,2.54,-1.64,-0.08,-2.55,976.24
6.588,0.33,0.58,-0.07,-7.07,-5.04,2.54,-1.64,-0.08,-2.55,976.24
6.592,0.33,0.58,-0.07,-7.07,-5.04,2.54,-1.80,-1.20,-2.94,976.24
6.594,0.33,0.58,-0.07,-4.28,-3.43,2.18,-1.80,-1.20,-2.94,976.24
6.596,0.33,0.58,-0.07,-4.28,-3.43,2.18,-1.80,-1.20,-2.94,976.25
6.61,0.20,0.65,-0.19,-4.28,-3.43,2.18,-1.80,-1.20,-2.94,976.25
6.621,0.17,0.70,-0.21,-4.28,-3.43,2.18,-1.80,-1.20,-2.94,976.25
6.623,0.17,0.70,-0.21,-4.28,-3.43,2.18,-1.89,-1.34,-3.73,976.25
6.624,0.17,0.70,-0.21,-2.40,-1.24,1.40,-1.89,-1.34,-3.73,976.25
6.639,0.23,0.82,-0.27,-2.40,-1.24,1.40,-1.89,-1.34,-3.73,976.25
6.654,0.23,0.82,-0.27,-2.40,-1.24,1.40,-1.89,-1.34,-3.73,976.25
6.659,0.47,0.97,-0.44,-2.40,-1.24,1.40,-1.89,-1.34,-3.73,976.25
6.66,0.47,0.97,-0.44,-2.40,-1.24,1.40,-1.89,-1.76,-4.20,976.25
6.66,0.47,0.97,-0.44,-0.87,-2.07,1.06,-1.89,-1.76,-4.20,976.25
6.679,0.76,1.10,-0.54,-0.87,-2.07,1.06,-1.89,-1.76,-4.20,976.25
6.7,0.71,1.11,-0.58,-0.87,-2.07,1.06,-1.89,-1.76,-4.20,976.25
6.703,0.71,1.11,-0.58,-0.87,-2.07,1.06,-1.98,-1.93,-4.40,976.25
6.704,0.71,1.11,-0.58,3.24,0.50,-1.96,-1.98,-1.93,-4.40,976.25
6.715,0.71,1.11,-0.58,3.24,0.50,-1.96,-1.98,-1.93,-4.40,976.25
6.72,0.67,1.19,-0.58,3.24,0.50,-1.96,-1.98,-1.93,-4.40,976.25
6.74,1.06,1.22,-0.61,3.24,0.50,-1.96,-1.98,-1.93,-4.40,976.25
6.743,1.06,1.22,-0.61,3.24,0.50,-1.96,-2.06,-0.61,-4.32,976.25
6.745,1.06,1.22,-0.61,7.92,2.25,-4.35,-2.06,-0.61,-4.32,976.25
6.759,0.92,0.93,-0.62,7.92,2.25,-4.35,-2.06,-0.61,-4.32,976.25
6.782,0.92,0.93,-0.62,7.92,2.25,-4.35,-2.06,-0.61,-4.32,976.25
6.784,0.48,0.95,-0.47,7.92,2.25,-4.35,-2.06,-0.61,-4.32,976.25
6.784,0.48,0.95,-0.47,7.92,2.25,-4.35,-1.25,1.69,-3.42,976.25
6.785,0.48,0.95,-0.47,8.94,2.22,-4.68,-1.25,1.69,-3.42,976.25
6.812,0.10,1.06,-0.33,8.94,2.22,-4.68,-1.25,1.69,-3.42,976.25
6.819,0.44,0.87,-0.08,8.94,2.22,-4.68,-1.25,1.69,-3.42,976.25
6.82,0.44,0.87,-0.08,8.94,2.22,-4.68,-0.21,1.90,-1.93,976.25
6.82,0.44,0.87,-0.08,6.39,0.40,-3.45,-0.21,1.90,-1.93,976.25
6.834,0.44,0.87,-0.08,6.39,0.40,-3.45,-0.21,1.90,-1.93,976.24
6.838,0.77,0.68,-0.11,6.39,0.40,-3.45,-0.21,1.90,-1.93,976.24
6.856,0.47,0.77,-0.17,6.39,0.40,-3.45,-0.21,1.90,-1.93,976.24
6.858,0.47,0.77,-0.17,6.39,0.40,-3.45,0.25,1.02,0.25,976.24
6.86,0.47,0.77,-0.17,6.73,-1.60,0.17,0.25,1.02,0.25,976.24
6.878,-0.02,0.86,-0.32,6.73,-1.60,0.17,0.25,1.02,0.25,976.24
6.898,-0.02,0.86,-0.32,6.73,-1.60,0.17,0.25,1.02,0.25,976.24
6.9,-0.39,1.02,-1.00,6.73,-1.60,0.17,0.25,1.02,0.25,976.24
6.901,-0.39,1.02,-1.00,6.73,-1.60,0.17,0.85,1.14,1.19,976.24
6.901,-0.39,1.02,-1.00,6.12,-1.57,0.51,0.85,1.14,1.19,976.24
6.917,0.42,2.42,-0.78,6.12,-1.57,0.51,0.85,1.14,1.19,976.24
6.936,-1.43,1.74,1.58,6.12,-1.57,0.51,0.85,1.14,1.19,976.24
6.94,-1.43,1.74,1.58,6.12,-1.57,0.51,1.26,-1.53,2.55,976.24
6.942,-1.43,1.74,1.58,-0.16,4.89,-4.63,1.26,-1.53,2.55,976.24
6.956,-1.43,1.74,1.58,-0.16,4.89,-4.63,1.26,-1.53,2.55,976.25
6.958,-0.67,0.51,-1.28,-0.16,4.89,-4.63,1.26,-1.53,2.55,976.25
6.976,1.06,1.25,0.00,-0.16,4.89,-4.63,1.26,-1.53,2.55,976.25
6.979,1.06,1.25,0.00,-0.16,4.89,-4.63,1.57,-0.07,1.54,976.25
6.98,1.06,1.25,0.00,-4.02,2.43,3.71,1.57,-0.07,1.54,976.25
6.998,-0.09,1.22,-0.10,-4.02,2.43,3.71,1.57,-0.07,1.54,976.25
7.016,-0.09,1.22,-0.10,-4.27,2.54,4.03,1.57,-0.07,1.54,976.25
7.018,-0.09,1.22,-0.10,-4.27,2.54,4.03,1.57,-0.07,1.54,976.25
7.019,0.04,0.98,-0.59,-4.27,2.54,4.03,1.57,-0.07,1.54,976.25
7.019,0.04,0.98,-0.59,-4.27,2.54,4.03,1.09,-0.19,0.99,976.25
7.034,0.37,1.41,-0.75,-4.27,2.54,4.03,1.09,-0.19,0.99,976.25
7.055,0.79,2.30,0.02,-4.27,2.54,4.03,1.09,-0.19,0.99,976.25
7.058,0.79,2.30,0.02,-4.27,2.54,4.03,0.57,-0.88,0.82,976.25
7.061,0.79,2.30,0.02,-0.01,2.96,-1.41,0.57,-0.88,0.82,976.25
7.082,0.79,2.30,0.02,-0.01,2.96,-1.41,0.57,-0.88,0.82,976.25
7.083,0.17,1.24,-0.31,-0.01,2.96,-1.41,0.57,-0.88,0.82,976.25
7.094,-0.08,0.47,-0.73,-0.01,2.96,-1.41,0.57,-0.88,0.82,976.25
7.095,-0.08,0.47,-0.73,-0.01,2.96,-1.41,0.27,0.18,0.26,976.25
7.096,-0.08,0.47,-0.73,1.65,4.22,0.04,0.27,0.18,0.26,976.25
7.116,0.04,0.75,-0.59,1.65,4.22,0.04,0.27,0.18,0.26,976.25
7.134,0.27,1.10,-0.36,1.65,4.22,0.04,0.27,0.18,0.26,976.25
7.137,0.27,1.10,-0.36,1.65,4.22,0.04,0.04,0.32,0.25,976.25
7.139,0.27,1.10,-0.36,1.49,4.17,0.04,0.04,0.32,0.25,976.25
7.14,0.27,1.10,-0.36,1.49,4.17,0.04,0.04,0.32,0.25,976.27
7.154,0.18,1.01,-0.23,1.49,4.17,0.04,0.04,0.32,0.25,976.27
7.189,-0.12,0.88,-0.27,1.49,4.17,0.04,0.04,0.32,0.25,976.27
7.193,-0.12,0.88,-0.27,1.49,4.17,0.04,-0.21,0.14,0.24,976.27
7.195,-0.12,0.88,-0.27,0.10,0.40,-0.54,-0.21,0.14,0.24,976.27
7.197,0.01,0.88,-0.30,0.10,0.40,-0.54,-0.21,0.14,0.24,976.27
7.199,0.01,0.88,-0.30,0.10,0.40,-0.54,-0.21,0.14,0.24,976.28
7.226,0.18,0.88,-0.26,0.10,0.40,-0.54,-0.21,0.14,0.24,976.28
7.23,0.18,0.88,-0.26,0.10,0.40,-0.54,-0.07,-0.14,0.36,976.28
7.233,0.18,0.88,-0.26,-1.32,-0.30,0.57,-0.07,-0.14,0.36,976.28
7.236,0.09,0.86,-0.24,-1.32,-0.30,0.57,-0.07,-0.14,0.36,976.28
7.252,-0.14,0.89,-0.22,-1.32,-0.30,0.57,-0.07,-0.14,0.36,976.28
7.253,-0.14,0.89,-0.22,-1.32,-0.30,0.57,0.14,0.01,0.61,976.28
7.254,-0.14,0.89,-0.22,-1.51,-0.23,0.61,0.14,0.01,0.61,976.28
7.254,-0.14,0.89,-0.22,-1.51,-0.23,0.61,0.14,0.01,0.61,976.28
7.291,-0.23,0.92,-0.13,-1.51,-0.23,0.61,0.14,0.01,0.61,976.28
7.298,-0.15,0.94,-0.19,-1.51,-0.23,0.61,0.14,0.01,0.61,976.28
7.299,-0.15,0.94,-0.19,-1.51,-0.23,0.61,0.47,0.46,1.00,976.28
7.3,-0.15,0.94,-0.19,-3.03,-0.02,1.50,0.47,0.46,1.00,976.28
7.312,0.09,0.92,-0.31,-3.03,-0.02,1.50,0.47,0.46,1.00,976.28
7.319,0.09,0.92,-0.31,-3.03,-0.02,1.50,0.47,0.46,1.00,976.27
7.332,0.32,0.81,-0.39,-3.03,-0.02,1.50,0.47,0.46,1.00,976.27
7.335,0.32,0.81,-0.39,-3.03,-0.02,1.50,0.83,0.33,1.68,976.27
7.336,0.32,0.81,-0.39,-1.85,0.28,0.79,0.83,0.33,1.68,976.27
7.351,0.30,0.81,-0.43,-1.85,0.28,0.79,0.83,0.33,1.68,976.27
7.385,0.25,0.72,-0.52,-1.85,0.28,0.79,0.83,0.33,1.68,976.27
7.388,0.25,0.72,-0.52,-1.85,0.28,0.79,0.94,0.70,2.07,976.27
7.39,0.25,0.72,-0.52,-2.59,0.66,0.99,0.94,0.70,2.07,976.27
7.391,0.25,0.72,-0.52,-2.59,0.66,0.99,0.94,0.70,2.07,976.26
7.392,0.59,0.75,-0.41,-2.59,0.66,0.99,0.94,0.70,2.07,976.26
7.414,0.49,0.88,-0.38,-2.59,0.66,0.99,0.94,0.70,2.07,976.26
7.415,0.49,0.88,-0.38,-2.59,0.66,0.99,0.80,1.29,2.21,976.26
7.416,0.49,0.88,-0.38,-0.55,-0.18,-0.52,0.80,1.29,2.21,976.26
7.432,0.28,0.67,-0.51,-0.55,-0.18,-0.52,0.80,1.29,2.21,976.26
7.435,0.28,0.67,-0.51,-0.55,-0.18,-0.52,0.80,1.29,2.21,976.25
7.451,0.59,0.78,-0.45,-0.55,-0.18,-0.52,0.80,1.29,2.21,976.25
7.453,0.59,0.78,-0.45,-0.55,-0.18,-0.52,0.65,1.40,2.33,976.25
7.454,0.59,0.78,-0.45,-0.71,0.52,-0.49,0.65,1.40,2.33,976.25
7.486,0.62,1.32,-0.48,-0.71,0.52,-0.49,0.65,1.40,2.33,976.25
7.491,0.38,1.78,-0.49,-0.71,0.52,-0.49,0.65,1.40,2.33,976.25
7.493,0.38,1.78,-0.49,-0.71,0.52,-0.49,0.59,1.32,2.66,976.25
7.496,0.38,1.78,-0.49,-1.59,1.18,-0.61,0.59,1.32,2.66,976.25
7.498,0.38,1.78,-0.49,-1.59,1.18,-0.61,0.59,1.32,2.66,976.24
7.509,0.64,2.14,-0.53,-1.59,1.18,-0.61,0.59,1.32,2.66,976.24
7.529,1.06,1.96,-0.40,-1.59,1.18,-0.61,0.59,1.32,2.66,976.24
7.531,1.06,1.96,-0.40,-1.59,1.18,-0.61,0.62,1.26,3.10,976.24
7.531,1.06,1.96,-0.40,-1.62,11.40,-1.33,0.62,1.26,3.10,976.24
7.551,0.37,1.29,-0.33,-1.62,11.40,-1.33,0.62,1.26,3.10,976.24
7.555,0.37,1.29,-0.33,-1.62,11.40,-1.33,0.62,1.26,3.10,976.25
7.59,0.37,1.29,-0.33,-3.64,7.33,-0.70,0.62,1.26,3.10,976.25
7.593,-0.24,0.55,-0.55,-3.64,7.33,-0.70,0.62,1.26,3.10,976.25
7.595,-0.24,0.55,-0.55,-3.64,7.33,-0.70,0.26,0.59,2.59,976.25
7.597,0.42,-0.32,-0.58,-3.64,7.33,-0.70,0.26,0.59,2.59,976.25
7.616,1.78,-0.49,-1.07,-3.64,7.33,-0.70,0.26,0.59,2.59,976.25
7.618,1.78,-0.49,-1.07,-3.64,7.33,-0.70,0.13,-1.41,2.05,976.25
7.619,1.78,-0.49,-1.07,-3.75,7.84,-0.24,0.13,-1.41,2.05,976.25
7.62,1.78,-0.49,-1.07,-3.75,7.84,-0.24,0.13,-1.41,2.05,976.26
7.638,0.96,0.06,-0.11,-3.75,7.84,-0.24,0.13,-1.41,2.05,976.26
7.651,-0.02,0.14,-0.03,-3.75,7.84,-0.24,0.13,-1.41,2.05,976.26
7.653,-0.02,0.14,-0.03,-3.75,7.84,-0.24,-0.10,-1.00,0.97,976.26
7.654,-0.02,0.14,-0.03,2.63,-6.61,-1.52,-0.10,-1.00,0.97,976.26
7.666,0.01,0.09,-0.21,2.63,-6.61,-1.52,-0.10,-1.00,0.97,976.26
7.674,0.01,0.09,-0.21,2.63,-6.61,-1.52,-0.10,-1.00,0.97,976.27
7.703,0.13,0.21,-0.12,2.63,-6.61,-1.52,-0.10,-1.00,0.97,976.27
7.706,0.13,0.21,-0.12,2.63,-6.61,-1.52,-0.92,1.13,-1.64,976.27
7.708,0.13,0.21,-0.12,-7.03,-3.32,2.50,-0.92,1.13,-1.64,976.27
7.711,0.08,0.27,-0.03,-7.03,-3.32,2.50,-0.92,1.13,-1.64,976.27
7.736,0.12,0.25,-0.11,-7.03,-3.32,2.50,-0.92,1.13,-1.64,976.27
7.739,0.12,0.25,-0.11,-7.03,-3.32,2.50,-1.34,0.39,-2.77,976.27
7.74,0.12,0.25,-0.11,-6.41,-4.23,2.08,-1.34,0.39,-2.77,976.27
7.74,0.12,0.25,-0.11,-6.41,-4.23,2.08,-1.34,0.39,-2.77,976.26
7.749,0.17,0.28,-0.02,-6.41,-4.23,2.08,-1.34,0.39,-2.77,976.26
7.766,0.18,0.41,-0.08,-6.41,-4.23,2.08,-1.34,0.39,-2.77,976.26
7.768,0.18,0.41,-0.08,-6.41,-4.23,2.08,-1.38,0.10,-3.50,976.26
7.769,0.18,0.41,-0.08,-4.67,-4.02,2.36,-1.38,0.10,-3.50,976.26
7.786,0.31,0.49,-0.24,-4.67,-4.02,2.36,-1.38,0.10,-3.50,976.26
7.794,0.31,0.49,-0.24,-4.67,-4.02,2.36,-1.38,0.10,-3.50,976.25
7.819,0.46,0.57,-0.36,-4.67,-4.02,2.36,-1.38,0.10,-3.50,976.25
7.821,0.46,0.57,-0.36,-4.67,-4.02,2.36,-1.41,-0.47,-4.11,976.25
7.821,0.46,0.57,-0.36,-1.59,-2.79,0.34,-1.41,-0.47,-4.11,976.25
7.824,0.48,0.61,-0.43,-1.59,-2.79,0.34,-1.41,-0.47,-4.11,976.25
7.853,0.50,0.60,-0.56,-1.59,-2.79,0.34,-1.41,-0.47,-4.11,976.25
7.856,0.50,0.60,-0.56,-1.59,-2.79,0.34,-1.53,-1.43,-4.49,976.25
7.857,0.50,0.60,-0.56,-0.02,-3.57,0.07,-1.53,-1.43,-4.49,976.25
7.859,0.50,0.60,-0.56,-0.02,-3.57,0.07,-1.53,-1.43,-4.49,976.26
7.868,0.70,0.89,-0.55,-0.02,-3.57,0.07,-1.53,-1.43,-4.49,976.26
7.885,0.70,1.27,-0.54,-0.02,-3.57,0.07,-1.53,-1.43,-4.49,976.26
7.888,0.70,1.27,-0.54,-0.02,-3.57,0.07,-1.47,-2.72,-4.12,976.26
7.89,0.70,1.27,-0.54,3.95,-2.00,-2.95,-1.47,-2.72,-4.12,976.26
7.919,0.60,1.34,-0.54,3.95,-2.00,-2.95,-1.47,-2.72,-4.12,976.26
7.921,0.60,1.34,-0.54,3.95,-2.00,-2.95,-1.47,-2.72,-4.12,976.27
7.929,0.52,1.27,-0.53,3.95,-2.00,-2.95,-1.47,-2.72,-4.12,976.27
7.93,0.52,1.27,-0.53,3.95,-2.00,-2.95,-1.31,-1.76,-3.68,976.27
7.93,0.52,1.27,-0.53,5.76,3.53,-3.50,-1.31,-1.76,-3.68,976.27
7.958,0.45,1.20,-0.47,5.76,3.53,-3.50,-1.31,-1.76,-3.68,976.27
7.964,0.34,0.93,-0.56,5.76,3.53,-3.50,-1.31,-1.76,-3.68,976.27
7.966,0.34,0.93,-0.56,5.76,3.53,-3.50,-0.84,0.00,-3.02,976.27
7.968,0.34,0.93,-0.56,6.74,3.46,-3.73,-0.84,0.00,-3.02,976.27
7.974,0.34,0.93,-0.56,6.74,3.46,-3.73,-0.84,0.00,-3.02,976.27
8.004,0.37,0.63,-0.20,6.74,3.46,-3.73,-0.84,0.00,-3.02,976.27
8.007,0.37,0.63,-0.20,5.00,-0.12,-2.43,-0.84,0.00,-3.02,976.27
8.009,0.44,0.71,-0.05,5.00,-0.12,-2.43,-0.84,0.00,-3.02,976.27
8.01,0.44,0.71,-0.05,5.00,-0.12,-2.43,-0.00,0.87,-1.50,976.27
8.036,0.27,0.94,-0.07,5.00,-0.12,-2.43,-0.00,0.87,-1.50,976.27
8.04,0.27,0.94,-0.07,5.00,-0.12,-2.43,-0.00,0.87,-1.50,976.27
8.043,0.36,0.96,-0.05,5.00,-0.12,-2.43,-0.00,0.87,-1.50,976.27
8.045,0.36,0.96,-0.05,5.00,-0.12,-2.43,0.41,0.94,-0.08,976.27
8.046,0.36,0.96,-0.05,4.56,-0.57,1.20,0.41,0.94,-0.08,976.27
8.063,0.43,0.89,-0.23,4.56,-0.57,1.20,0.41,0.94,-0.08,976.27
8.087,0.27,1.07,-0.55,4.56,-0.57,1.20,0.41,0.94,-0.08,976.27
8.089,0.27,1.07,-0.55,4.56,-0.57,1.20,0.73,1.20,1.09,976.27
8.091,0.27,1.07,-0.55,4.01,-0.54,1.48,0.73,1.20,1.09,976.27
8.094,0.27,1.07,-0.55,4.01,-0.54,1.48,0.73,1.20,1.09,976.27
8.109,1.08,2.44,-1.25,4.01,-0.54,1.48,0.73,1.20,1.09,976.27
8.121,-1.27,1.78,1.99,4.01,-0.54,1.48,0.73,1.20,1.09,976.27
8.124,-1.27,1.78,1.99,4.01,-0.54,1.48,1.43,0.48,2.53,976.27
8.125,-1.27,1.78,1.99,5.29,5.31,-4.03,1.43,0.48,2.53,976.27
8.141,-1.30,0.55,-1.59,5.29,5.31,-4.03,1.43,0.48,2.53,976.27
8.154,-1.30,0.55,-1.59,5.29,5.31,-4.03,1.43,0.48,2.53,976.28
8.161,0.34,0.92,0.07,5.29,5.31,-4.03,1.43,0.48,2.53,976.28
8.163,0.34,0.92,0.07,5.29,5.31,-4.03,1.54,0.36,1.61,976.28
8.164,0.34,0.92,0.07,-8.25,1.79,4.61,1.54,0.36,1.61,976.28
8.182,-0.01,0.87,-0.83,-8.25,1.79,4.61,1.54,0.36,1.61,976.28
8.208,0.52,1.32,-0.72,-8.25,1.79,4.61,1.54,0.36,1.61,976.28
8.213,0.52,1.32,-0.72,-8.25,1.79,4.61,1.05,-1.32,1.96,976.28
8.216,0.52,1.32,-0.72,-8.60,1.99,4.95,1.05,-1.32,1.96,976.28
8.218,0.52,1.32,-0.72,-8.60,1.99,4.95,1.05,-1.32,1.96,976.29
8.242,0.81,1.28,-0.54,-8.60,1.99,4.95,1.05,-1.32,1.96,976.29
8.246,0.78,0.85,-0.28,-8.60,1.99,4.95,1.05,-1.32,1.96,976.29
8.249,0.78,0.85,-0.28,-8.60,1.99,4.95,0.62,-0.68,1.38,976.29
8.251,0.78,0.85,-0.28,2.58,2.79,-3.11,0.62,-0.68,1.38,976.29
8.26,0.05,0.86,-0.46,2.58,2.79,-3.11,0.62,-0.68,1.38,976.29
8.283,0.05,0.86,-0.46,2.58,2.79,-3.11,0.62,-0.68,1.38,976.30
8.285,-0.01,1.46,-0.42,2.58,2.79,-3.11,0.62,-0.68,1.38,976.30
8.285,-0.01,1.46,-0.42,2.58,2.79,-3.11,0.14,-0.11,0.57,976.30
8.286,-0.01,1.46,-0.42,0.79,1.89,-0.04,0.14,-0.11,0.57,976.30
8.307,0.38,1.84,-0.23,0.79,1.89,-0.04,0.14,-0.11,0.57,976.30
8.319,0.43,0.88,-0.36,0.79,1.89,-0.04,0.14,-0.11,0.57,976.30
8.321,0.43,0.88,-0.36,0.79,1.89,-0.04,0.08,-0.29,0.72,976.30
8.322,0.43,0.88,-0.36,0.59,1.92,0.01,0.08,-0.29,0.72,976.30
8.333,0.43,0.88,-0.36,0.59,1.92,0.01,0.08,-0.29,0.72,976.30
8.339,0.34,0.42,-0.59,0.59,1.92,0.01,0.08,-0.29,0.72,976.30
8.359,0.32,0.68,-0.52,0.59,1.92,0.01,0.08,-0.29,0.72,976.30
8.362,0.32,0.68,-0.52,0.59,1.92,0.01,0.29,0.41,0.75,976.30
8.364,0.32,0.68,-0.52,1.27,1.91,0.00,0.29,0.41,0.75,976.30
8.387,0.29,1.01,-0.43,1.27,1.91,0.00,0.29,0.41,0.75,976.30
8.394,0.29,1.01,-0.43,1.27,1.91,0.00,0.29,0.41,0.75,976.29
8.409,0.29,1.01,-0.43,-0.25,0.37,-0.67,0.29,0.41,0.75,976.29
8.41,0.12,0.98,-0.43,-0.25,0.37,-0.67,0.29,0.41,0.75,976.29
8.411,0.12,0.98,-0.43,-0.25,0.37,-0.67,0.06,0.42,0.44,976.29
8.418,0.23,0.83,-0.40,-0.25,0.37,-0.67,0.06,0.42,0.44,976.29
8.437,0.41,0.80,-0.33,-0.25,0.37,-0.67,0.06,0.42,0.44,976.29
8.438,0.41,0.80,-0.33,-0.25,0.37,-0.67,-0.00,0.08,0.57,976.29
8.438,0.41,0.80,-0.33,-0.44,0.43,-0.66,-0.00,0.08,0.57,976.29
8.458,0.41,0.80,-0.33,-0.44,0.43,-0.66,-0.00,0.08,0.57,976.29
8.459,0.35,0.85,-0.31,-0.44,0.43,-0.66,-0.00,0.08,0.57,976.29
8.476,0.10,0.91,-0.40,-0.44,0.43,-0.66,-0.00,0.08,0.57,976.29
8.477,0.10,0.91,-0.40,-0.44,0.43,-0.66,0.15,0.35,0.67,976.29
8.477,0.10,0.91,-0.40,0.08,-0.07,0.49,0.15,0.35,0.67,976.29
8.496,0.04,0.86,-0.36,0.08,-0.07,0.49,0.15,0.35,0.67,976.29
8.513,0.04,0.86,-0.36,0.08,-0.07,0.49,0.15,0.35,0.67,976.30
8.516,0.25,0.77,-0.26,0.08,-0.07,0.49,0.15,0.35,0.67,976.30
8.521,0.25,0.77,-0.26,0.08,-0.07,0.49,0.33,0.75,0.88,976.30
8.523,0.25,0.77,-0.26,-2.21,0.28,0.55,0.33,0.75,0.88,976.30
8.536,0.41,0.80,-0.33,-2.21,0.28,0.55,0.33,0.75,0.88,976.30
8.556,0.45,0.85,-0.44,-2.21,0.28,0.55,0.33,0.75,0.88,976.30
8.561,0.45,0.85,-0.44,-2.21,0.28,0.55,0.54,0.84,1.34,976.30
8.563,0.45,0.85,-0.44,-2.71,0.56,0.58,0.54,0.84,1.34,976.30
8.573,0.45,0.85,-0.44,-2.71,0.56,0.58,0.54,0.84,1.34,976.30
8.576,0.40,0.84,-0.52,-2.71,0.56,0.58,0.54,0.84,1.34,976.30
8.605,0.28,0.90,-0.52,-2.71,0.56,0.58,0.54,0.84,1.34,976.30
8.609,0.28,0.90,-0.52,-2.71,0.56,0.58,0.61,1.38,1.50,976.30
8.611,0.28,0.90,-0.52,-0.50,0.76,-0.38,0.61,1.38,1.50,976.30
8.631,0.37,0.95,-0.35,-0.50,0.76,-0.38,0.61,1.38,1.50,976.30
8.633,0.37,0.95,-0.35,-0.50,0.76,-0.38,0.61,1.38,1.50,976.31
8.635,0.46,1.06,-0.31,-0.50,0.76,-0.38,0.61,1.38,1.50,976.31
8.636,0.46,1.06,-0.31,-0.50,0.76,-0.38,0.53,1.62,1.82,976.31
8.636,0.46,1.06,-0.31,-1.76,2.49,-0.18,0.53,1.62,1.82,976.31
8.655,0.45,1.31,-0.23,-1.76,2.49,-0.18,0.53,1.62,1.82,976.31
8.674,0.49,1.50,-0.31,-1.76,2.49,-0.18,0.53,1.62,1.82,976.31
8.676,0.49,1.50,-0.31,-1.76,2.49,-0.18,0.56,1.59,2.46,976.31
8.676,0.49,1.50,-0.31,-2.59,3.08,-0.39,0.56,1.59,2.46,976.31
8.706,0.49,1.50,-0.31,-2.59,3.08,-0.39,0.56,1.59,2.46,976.32
8.71,0.85,2.37,-0.49,-2.59,3.08,-0.39,0.56,1.59,2.46,976.32
8.734,0.85,2.37,-0.49,-1.29,11.19,-0.23,0.56,1.59,2.46,976.32
8.737,0.29,3.12,-0.84,-1.29,11.19,-0.23,0.56,1.59,2.46,976.32
8.739,0.29,3.12,-0.84,-1.29,11.19,-0.23,0.77,2.04,3.02,976.32
8.74,-1.03,2.13,-0.90,-1.29,11.19,-0.23,0.77,2.04,3.02,976.32
8.754,-1.03,2.13,-0.90,-1.29,11.19,-0.23,0.77,2.04,3.02,976.31
8.757,-1.13,1.01,-0.75,-1.29,11.19,-0.23,0.77,2.04,3.02,976.31
8.758,-1.13,1.01,-0.75,-1.29,11.19,-0.23,0.65,2.76,2.74,976.31
8.76,-1.13,1.01,-0.75,-13.88,15.35,-5.61,0.65,2.76,2.74,976.31
8.773,0.52,0.23,-0.59,-13.88,15.35,-5.61,0.65,2.76,2.74,976.31
8.799,2.23,0.21,-1.13,-13.88,15.35,-5.61,0.65,2.76,2.74,976.31
8.802,2.23,0.21,-1.13,-13.88,15.35,-5.61,0.12,-0.49,3.41,976.31
8.804,2.23,0.21,-1.13,-14.20,16.18,-5.34,0.12,-0.49,3.41,976.31
8.813,2.23,0.21,-1.13,-14.20,16.18,-5.34,0.12,-0.49,3.41,976.31
8.815,1.25,0.45,-0.48,-14.20,16.18,-5.34,0.12,-0.49,3.41,976.31
8.834,1.25,0.45,-0.48,4.69,-0.59,-3.93,0.12,-0.49,3.41,976.31
8.839,0.26,0.41,-0.16,4.69,-0.59,-3.93,0.12,-0.49,3.41,976.31
8.841,0.26,0.41,-0.16,4.69,-0.59,-3.93,-0.22,-1.38,2.43,976.31
8.853,0.21,-0.02,-0.30,4.69,-0.59,-3.93,-0.22,-1.38,2.43,976.31
8.873,0.31,0.02,-0.23,4.69,-0.59,-3.93,-0.22,-1.38,2.43,976.31
8.875,0.31,0.02,-0.23,4.69,-0.59,-3.93,-0.68,1.31,-0.86,976.31
8.876,0.31,0.02,-0.23,-5.79,-2.48,0.49,-0.68,1.31,-0.86,976.31
8.878,0.31,0.02,-0.23,-5.79,-2.48,0.49,-0.68,1.31,-0.86,976.30
8.903,0.13,0.17,0.12,-5.79,-2.48,0.49,-0.68,1.31,-0.86,976.30
8.912,-0.15,0.09,-0.00,-5.79,-2.48,0.49,-0.68,1.31,-0.86,976.30
8.913,-0.15,0.09,-0.00,-5.79,-2.48,0.49,-1.06,0.35,-2.36,976.30
8.914,-0.15,0.09,-0.00,-5.34,-3.29,0.19,-1.06,0.35,-2.36,976.30
8.94,0.07,0.12,-0.16,-5.34,-3.29,0.19,-1.06,0.35,-2.36,976.30
8.942,0.07,0.12,-0.16,-5.34,-3.29,0.19,-1.06,0.35,-2.36,976.31
8.952,0.50,0.30,-0.21,-5.34,-3.29,0.19,-1.06,0.35,-2.36,976.31
8.955,0.50,0.30,-0.21,-5.34,-3.29,0.19,-1.10,-1.62,-3.64,976.31
8.955,0.50,0.30,-0.21,-6.67,-4.51,2.48,-1.10,-1.62,-3.64,976.31
8.97,0.60,0.43,-0.16,-6.67,-4.51,2.48,-1.10,-1.62,-3.64,976.31
8.992,0.40,0.54,-0.07,-6.67,-4.51,2.48,-1.10,-1.62,-3.64,976.31
8.993,0.40,0.54,-0.07,-6.67,-4.51,2.48,-1.39,-2.36,-4.67,976.31
8.993,0.40,0.54,-0.07,-0.51,-2.82,1.41,-1.39,-2.36,-4.67,976.31
8.994,0.40,0.54,-0.07,-0.51,-2.82,1.41,-1.39,-2.36,-4.67,976.29
9.023,0.09,0.70,-0.09,-0.51,-2.82,1.41,-1.39,-2.36,-4.67,976.29
9.032,0.09,0.70,-0.09,1.29,-3.90,1.24,-1.39,-2.36,-4.67,976.29
9.033,0.19,0.91,-0.33,1.29,-3.90,1.24,-1.39,-2.36,-4.67,976.29
9.034,0.19,0.91,-0.33,1.29,-3.90,1.24,-1.58,-1.79,-5.46,976.29
9.05,0.74,1.08,-0.38,1.29,-3.90,1.24,-1.58,-1.79,-5.46,976.29
9.052,0.74,1.08,-0.38,1.29,-3.90,1.24,-1.58,-1.79,-5.46,976.27
9.072,0.96,1.02,-0.26,1.29,-3.90,1.24,-1.58,-1.79,-5.46,976.27
9.075,0.96,1.02,-0.26,1.29,-3.90,1.24,-1.94,-2.31,-5.54,976.27
9.077,0.96,1.02,-0.26,1.78,0.00,-0.37,-1.94,-2.31,-5.54,976.27
9.107,0.73,1.05,-0.40,1.78,0.00,-0.37,-1.94,-2.31,-5.54,976.27
9.111,0.73,1.05,-0.40,8.24,2.25,-2.56,-1.94,-2.31,-5.54,976.27
9.116,0.66,1.40,-0.62,8.24,2.25,-2.56,-1.94,-2.31,-5.54,976.27
9.118,0.66,1.40,-0.62,8.24,2.25,-2.56,-2.09,-1.28,-6.06,976.27
9.12,0.66,1.40,-0.62,8.24,2.25,-2.56,-2.09,-1.28,-6.06,976.29
9.145,0.93,1.80,-0.64,8.24,2.25,-2.56,-2.09,-1.28,-6.06,976.29
9.156,1.15,1.73,-0.49,8.24,2.25,-2.56,-2.09,-1.28,-6.06,976.29
9.158,1.15,1.73,-0.49,8.24,2.25,-2.56,-1.81,-0.66,-6.16,976.29
9.159,1.15,1.73,-0.49,10.28,2.52,-3.19,-1.81,-0.66,-6.16,976.29
9.17,0.94,1.50,-0.49,10.28,2.52,-3.19,-1.81,-0.66,-6.16,976.29
9.173,0.94,1.50,-0.49,10.28,2.52,-3.19,-1.81,-0.66,-6.16,976.31
9.189,0.34,1.34,-0.55,10.28,2.52,-3.19,-1.81,-0.66,-6.16,976.31
9.19,0.34,1.34,-0.55,10.28,2.52,-3.19,-1.21,0.51,-4.70,976.31
9.191,0.34,1.34,-0.55,13.80,8.07,-4.57,-1.21,0.51,-4.70,976.31
9.217,0.18,1.07,-0.52,13.80,8.07,-4.57,-1.21,0.51,-4.70,976.31
9.229,0.77,0.88,-0.30,13.80,8.07,-4.57,-1.21,0.51,-4.70,976.31
9.231,0.77,0.88,-0.30,13.80,8.07,-4.57,-0.31,-0.34,-1.61,976.31
9.232,0.77,0.88,-0.30,8.53,2.61,-3.85,-0.31,-0.34,-1.61,976.31
9.252,0.77,0.88,-0.30,8.53,2.61,-3.85,-0.31,-0.34,-1.61,976.33
9.255,0.91,0.81,-0.29,8.53,2.61,-3.85,-0.31,-0.34,-1.61,976.33
9.27,-0.18,1.61,0.46,8.53,2.61,-3.85,-0.31,-0.34,-1.61,976.33
9.272,-0.18,1.61,0.46,8.53,2.61,-3.85,0.51,-1.58,1.59,976.33
9.273,-0.18,1.61,0.46,7.91,2.33,-3.87,0.51,-1.58,1.59,976.33
9.286,-2.26,2.25,0.90,7.91,2.33,-3.87,0.51,-1.58,1.59,976.33
9.292,-2.26,2.25,0.90,7.91,2.33,-3.87,0.51,-1.58,1.59,976.33
9.314,-2.36,0.56,-1.23,7.91,2.33,-3.87,0.51,-1.58,1.59,976.33
9.317,-2.36,0.56,-1.23,7.91,2.33,-3.87,0.81,1.19,0.20,976.33
9.318,-2.36,0.56,-1.23,-1.39,6.72,4.48,0.81,1.19,0.20,976.33
9.349,-0.12,0.12,-0.95,-1.39,6.72,4.48,0.81,1.19,0.20,976.33
9.351,2.39,2.04,0.19,-1.39,6.72,4.48,0.81,1.19,0.20,976.33
9.352,2.39,2.04,0.19,-1.39,6.72,4.48,1.16,-4.08,1.46,976.33
9.352,2.39,2.04,0.19,2.94,0.18,-5.58,1.16,-4.08,1.46,976.33
9.353,2.39,2.04,0.19,2.94,0.18,-5.58,1.16,-4.08,1.46,976.34
9.366,1.36,1.45,-0.08,2.94,0.18,-5.58,1.16,-4.08,1.46,976.34
9.406,1.36,1.45,-0.08,2.24,-0.03,-5.43,1.16,-4.08,1.46,976.34
9.41,0.13,0.40,-0.48,2.24,-0.03,-5.43,1.16,-4.08,1.46,976.34
9.412,0.13,0.40,-0.48,2.24,-0.03,-5.43,1.13,-2.94,2.22,976.34
9.414,-0.47,0.95,-0.89,2.24,-0.03,-5.43,1.13,-2.94,2.22,976.34
9.441,-0.47,0.95,-0.89,2.24,-0.03,-5.43,1.13,-2.94,2.22,976.33
9.445,-1.02,1.18,-0.45,2.24,-0.03,-5.43,1.13,-2.94,2.22,976.33
9.448,-1.02,1.18,-0.45,2.24,-0.03,-5.43,1.15,2.00,-0.25,976.33
9.449,-1.02,1.18,-0.45,5.71,0.32,-3.04,1.15,2.00,-0.25,976.33
9.45,-0.55,0.85,-0.17,5.71,0.32,-3.04,1.15,2.00,-0.25,976.33
9.464,-0.11,0.84,-0.04,5.71,0.32,-3.04,1.15,2.00,-0.25,976.33
9.465,-0.11,0.84,-0.04,5.71,0.32,-3.04,0.26,0.98,0.38,976.33
9.466,-0.11,0.84,-0.04,-3.21,0.51,-0.29,0.26,0.98,0.38,976.33
9.476,-0.11,0.84,-0.04,-3.21,0.51,-0.29,0.26,0.98,0.38,976.34
9.516,-0.26,1.01,-0.22,-3.21,0.51,-0.29,0.26,0.98,0.38,976.34
9.52,-0.22,1.01,-0.32,-3.21,0.51,-0.29,0.26,0.98,0.38,976.34
9.522,-0.22,1.01,-0.32,-3.21,0.51,-0.29,0.30,0.37,0.90,976.34
9.524,-0.22,1.01,-0.32,-3.50,0.45,-0.15,0.30,0.37,0.90,976.34
9.526,-0.10,0.91,-0.26,-3.50,0.45,-0.15,0.30,0.37,0.90,976.34
9.532,-0.10,0.91,-0.26,-3.50,0.45,-0.15,0.30,0.37,0.90,976.34
9.546,0.04,0.96,-0.18,-3.50,0.45,-0.15,0.30,0.37,0.90,976.34
9.55,0.04,0.96,-0.18,-3.50,0.45,-0.15,0.33,0.84,0.78,976.34
9.552,0.04,0.96,-0.18,-0.26,0.62,-0.41,0.33,0.84,0.78,976.34
9.565,0.03,1.04,-0.14,-0.26,0.62,-0.41,0.33,0.84,0.78,976.34
9.593,-0.12,0.99,-0.22,-0.26,0.62,-0.41,0.33,0.84,0.78,976.34
9.596,-0.12,0.99,-0.22,-0.26,0.62,-0.41,0.25,1.06,0.60,976.34
9.598,-0.12,0.99,-0.22,1.10,0.79,0.56,0.25,1.06,0.60,976.34
9.598,-0.12,0.99,-0.22,1.10,0.79,0.56,0.25,1.06,0.60,976.34
9.628,-0.32,0.95,-0.32,1.10,0.79,0.56,0.25,1.06,0.60,976.34
9.632,-0.38,0.94,-0.33,1.10,0.79,0.56,0.25,1.06,0.60,976.34
9.634,-0.38,0.94,-0.33,1.10,0.79,0.56,0.32,0.87,0.55,976.34
9.635,-0.38,0.94,-0.33,0.81,0.79,0.70,0.32,0.87,0.55,976.34
9.642,-0.21,0.94,-0.26,0.81,0.79,0.70,0.32,0.87,0.55,976.34
9.651,-0.21,0.94,-0.26,0.81,0.79,0.70,0.32,0.87,0.55,976.33
9.663,-0.10,0.95,-0.23,0.81,0.79,0.70,0.32,0.87,0.55,976.33
9.665,-0.10,0.95,-0.23,0.81,0.79,0.70,0.24,0.23,0.86,976.33
9.666,-0.10,0.95,-0.23,-2.26,0.23,-0.39,0.24,0.23,0.86,976.33
9.683,-0.20,0.96,-0.21,-2.26,0.23,-0.39,0.24,0.23,0.86,976.33
9.71,-0.29,0.93,-0.19,-2.26,0.23,-0.39,0.24,0.23,0.86,976.33
9.714,-0.29,0.93,-0.19,-2.26,0.23,-0.39,0.28,0.19,1.13,976.33
9.715,-0.29,0.93,-0.19,-1.63,0.27,0.60,0.28,0.19,1.13,976.33
9.718,-0.29,0.93,-0.19,-1.63,0.27,0.60,0.28,0.19,1.13,976.32
9.735,-0.30,0.89,-0.18,-1.63,0.27,0.60,0.28,0.19,1.13,976.32
9.742,-0.28,0.84,-0.12,-1.63,0.27,0.60,0.28,0.19,1.13,976.32
9.743,-0.28,0.84,-0.12,-1.63,0.27,0.60,0.47,0.18,1.52,976.32
9.744,-0.28,0.84,-0.12,-2.15,0.31,0.76,0.47,0.18,1.52,976.32
9.761,-0.25,0.83,-0.13,-2.15,0.31,0.76,0.47,0.18,1.52,976.32
9.771,-0.25,0.83,-0.13,-2.15,0.31,0.76,0.47,0.18,1.52,976.32
9.781,-0.09,0.77,-0.15,-2.15,0.31,0.76,0.47,0.18,1.52,976.32
9.784,-0.09,0.77,-0.15,-2.15,0.31,0.76,0.80,0.23,2.10,976.32
9.785,-0.09,0.77,-0.15,-3.60,-0.43,1.67,0.80,0.23,2.10,976.32
9.805,0.16,0.78,-0.13,-3.60,-0.43,1.67,0.80,0.23,2.10,976.32
9.832,0.36,0.81,-0.34,-3.60,-0.43,1.67,0.80,0.23,2.10,976.32
9.834,0.36,0.81,-0.34,-3.60,-0.43,1.67,1.23,0.57,2.52,976.32
9.835,0.36,0.81,-0.34,-0.45,-0.78,1.40,1.23,0.57,2.52,976.32
9.836,0.36,0.81,-0.34,-0.45,-0.78,1.40,1.23,0.57,2.52,976.32
9.841,0.67,0.86,-0.49,-0.45,-0.78,1.40,1.23,0.57,2.52,976.32
9.861,0.71,0.88,-0.53,-0.45,-0.78,1.40,1.23,0.57,2.52,976.32
9.865,0.71,0.88,-0.53,-0.45,-0.78,1.40,1.40,0.84,2.51,976.32
9.867,0.71,0.88,-0.53,-1.37,-0.34,1.75,1.40,0.84,2.51,976.32
9.881,0.43,0.72,-0.52,-1.37,-0.34,1.75,1.40,0.84,2.51,976.32
9.894,0.43,0.72,-0.52,-1.37,-0.34,1.75,1.40,0.84,2.51,976.32
9.899,0.39,0.59,-0.47,-1.37,-0.34,1.75,1.40,0.84,2.51,976.32
9.901,0.39,0.59,-0.47,-1.37,-0.34,1.75,1.18,1.92,2.12,976.32
9.903,0.39,0.59,-0.47,2.16,0.43,-1.14,1.18,1.92,2.12,976.32
9.919,0.64,0.67,-0.39,2.16,0.43,-1.14,1.18,1.92,2.12,976.32
9.939,0.61,0.88,-0.37,2.16,0.43,-1.14,1.18,1.92,2.12,976.32
9.942,0.61,0.88,-0.37,0.77,-0.15,-0.15,1.18,1.92,2.12,976.32
9.944,0.61,0.88,-0.37,0.77,-0.15,-0.15,0.84,1.76,2.02,976.32
9.954,0.61,0.88,-0.37,0.77,-0.15,-0.15,0.84,1.76,2.02,976.32
9.96,0.42,0.93,-0.49,0.77,-0.15,-0.15,0.84,1.76,2.02,976.32
9.98,0.58,1.15,-0.46,0.77,-0.15,-0.15,0.84,1.76,2.02,976.32
9.983,0.58,1.15,-0.46,-0.00,0.35,-0.22,0.84,1.76,2.02,976.32
9.985,0.58,1.15,-0.46,-0.00,0.35,-0.22,0.64,1.28,2.10,976.32
10.003,0.47,1.98,-0.47,-0.00,0.35,-0.22,0.64,1.28,2.10,976.32
10.019,0.47,1.98,-0.47,-0.00,0.35,-0.22,0.64,1.28,2.10,976.32
10.021,0.47,1.98,-0.47,-1.48,7.23,-1.04,0.64,1.28,2.10,976.32
10.023,0.37,3.08,-0.54,-1.48,7.23,-1.04,0.64,1.28,2.10,976.32
10.024,0.37,3.08,-0.54,-1.48,7.23,-1.04,0.90,1.89,2.53,976.32
10.039,0.48,2.58,-0.84,-1.48,7.23,-1.04,0.90,1.89,2.53,976.32
10.058,-0.04,1.53,-0.79,-1.48,7.23,-1.04,0.90,1.89,2.53,976.32
10.062,-0.04,1.53,-0.79,-1.48,7.23,-1.04,1.28,2.54,3.23,976.32
10.064,-0.04,1.53,-0.79,-4.59,18.18,-3.80,1.28,2.54,3.23,976.32
10.074,-0.04,1.53,-0.79,-4.59,18.18,-3.80,1.28,2.54,3.23,976.33
10.078,-0.40,0.55,-0.77,-4.59,18.18,-3.80,1.28,2.54,3.23,976.33
10.108,1.38,-0.67,-1.02,-4.59,18.18,-3.80,1.28,2.54,3.23,976.33
10.112,1.38,-0.67,-1.02,-4.59,18.18,-3.80,0.76,0.46,2.58,976.33
10.114,1.38,-0.67,-1.02,-5.06,18.73,-3.72,0.76,0.46,2.58,976.33
10.118,2.41,-0.22,-0.63,-5.06,18.73,-3.72,0.76,0.46,2.58,976.33
10.147,2.41,-0.22,-0.63,-5.06,18.73,-3.72,0.76,0.46,2.58,976.34
10.156,0.42,0.39,-0.42,-5.06,18.73,-3.72,0.76,0.46,2.58,976.34
10.158,0.42,0.39,-0.42,2.99,-4.83,-4.02,0.76,0.46,2.58,976.34
10.159,0.42,0.39,-0.42,2.99,-4.83,-4.02,0.39,-1.22,2.99,976.34
10.159,0.07,0.08,-0.27,2.99,-4.83,-4.02,0.39,-1.22,2.99,976.34
10.176,0.35,-0.31,-0.02,2.99,-4.83,-4.02,0.39,-1.22,2.99,976.34
10.178,0.35,-0.31,-0.02,2.99,-4.83,-4.02,0.08,1.37,0.40,976.34
10.179,0.35,-0.31,-0.02,-5.51,-2.97,1.11,0.08,1.37,0.40,976.34
10.211,0.35,-0.31,-0.02,-5.51,-2.97,1.11,0.08,1.37,0.40,976.33
10.213,-0.03,-0.10,0.09,-5.51,-2.97,1.11,0.08,1.37,0.40,976.33
10.215,0.11,0.11,0.10,-5.51,-2.97,1.11,0.08,1.37,0.40,976.33
10.216,0.11,0.11,0.10,-5.51,-2.97,1.11,-0.67,0.73,-1.42,976.33
10.218,0.11,0.11,0.10,-5.31,-3.46,0.76,-0.67,0.73,-1.42,976.33
10.235,0.22,0.13,0.19,-5.31,-3.46,0.76,-0.67,0.73,-1.42,976.33
10.252,0.22,0.13,0.19,-5.31,-3.46,0.76,-0.67,0.73,-1.42,976.33
10.259,0.14,0.22,0.25,-5.31,-3.46,0.76,-0.67,0.73,-1.42,976.33
10.262,0.14,0.22,0.25,-5.31,-3.46,0.76,-1.07,-0.89,-2.31,976.33
10.264,0.14,0.22,0.25,-6.42,-4.28,4.31,-1.07,-0.89,-2.31,976.33
10.277,0.10,0.26,0.13,-6.42,-4.28,4.31,-1.07,-0.89,-2.31,976.33
10.303,0.10,0.26,0.13,-5.19,-3.28,4.64,-1.07,-0.89,-2.31,976.33
10.305,0.16,0.26,0.05,-5.19,-3.28,4.64,-1.07,-0.89,-2.31,976.33
10.307,0.16,0.26,0.05,-5.19,-3.28,4.64,-1.32,-1.75,-2.97,976.33
10.311,0.16,0.26,0.05,-5.19,-3.28,4.64,-1.32,-1.75,-2.97,976.33
10.314,0.28,0.31,-0.07,-5.19,-3.28,4.64,-1.32,-1.75,-2.97,976.33
10.333,0.39,0.35,-0.07,-5.19,-3.28,4.64,-1.32,-1.75,-2.97,976.33
10.335,0.39,0.35,-0.07,-5.19,-3.28,4.64,-1.83,-2.06,-3.71,976.33
10.336,0.39,0.35,-0.07,-3.94,-4.31,4.59,-1.83,-2.06,-3.71,976.33
10.353,0.44,0.38,0.04,-3.94,-4.31,4.59,-1.83,-2.06,-3.71,976.33
10.372,0.44,0.38,0.04,-3.94,-4.31,4.59,-1.83,-2.06,-3.71,976.33
10.376,0.41,0.45,-0.09,-3.94,-4.31,4.59,-1.83,-2.06,-3.71,976.33
10.378,0.41,0.45,-0.09,-3.94,-4.31,4.59,-2.15,-0.94,-4.69,976.33
10.38,0.41,0.45,-0.09,-0.16,-4.34,2.35,-2.15,-0.94,-4.69,976.33
10.394,0.43,0.54,-0.31,-0.16,-4.34,2.35,-2.15,-0.94,-4.69,976.33
10.427,0.87,0.88,-0.42,-0.16,-4.34,2.35,-2.15,-0.94,-4.69,976.33
10.43,0.87,0.88,-0.42,-0.16,-4.34,2.35,-1.85,-0.32,-5.07,976.33
10.432,0.87,0.88,-0.42,3.44,-2.36,-0.54,-1.85,-0.32,-5.07,976.33
10.434,0.87,0.88,-0.42,3.44,-2.36,-0.54,-1.85,-0.32,-5.07,976.34
10.462,1.35,1.28,-0.61,3.44,-2.36,-0.54,-1.85,-0.32,-5.07,976.34
10.465,0.93,1.13,-0.73,3.44,-2.36,-0.54,-1.85,-0.32,-5.07,976.34
10.47,0.93,1.13,-0.73,5.00,-2.68,-1.00,-1.85,-0.32,-5.07,976.34
10.473,0.93,1.13,-0.73,5.00,-2.68,-1.00,-1.53,-0.86,-4.61,976.34
10.474,0.63,1.19,-0.67,5.00,-2.68,-1.00,-1.53,-0.86,-4.61,976.34
10.495,0.63,1.19,-0.67,5.00,-2.68,-1.00,-1.53,-0.86,-4.61,976.35
10.496,0.78,1.17,-0.58,5.00,-2.68,-1.00,-1.53,-0.86,-4.61,976.35
10.497,0.78,1.17,-0.58,5.00,-2.68,-1.00,-1.16,-0.99,-3.64,976.35
10.498,0.78,1.17,-0.58,10.06,2.89,-5.22,-1.16,-0.99,-3.64,976.35
10.513,0.80,0.90,-0.28,10.06,2.89,-5.22,-1.16,-0.99,-3.64,976.35
10.531,0.80,1.01,-0.35,10.06,2.89,-5.22,-1.16,-0.99,-3.64,976.35
10.532,0.80,1.01,-0.35,10.06,2.89,-5.22,-0.59,-0.62,-1.65,976.35
10.532,0.80,1.01,-0.35,8.78,1.18,-2.79,-0.59,-0.62,-1.65,976.35
10.551,0.80,1.01,-0.35,8.78,1.18,-2.79,-0.59,-0.62,-1.65,976.35
10.553,0.58,1.06,-0.38,8.78,1.18,-2.79,-0.59,-0.62,-1.65,976.35
10.572,0.43,0.89,-0.27,8.78,1.18,-2.79,-0.59,-0.62,-1.65,976.35
10.576,0.43,0.89,-0.27,8.78,1.18,-2.79,0.10,0.84,-0.12,976.35
10.578,0.43,0.89,-0.27,8.63,1.17,-2.67,0.10,0.84,-0.12,976.35
10.592,0.21,0.85,-0.69,8.63,1.17,-2.67,0.10,0.84,-0.12,976.35
10.628,0.21,0.85,-0.69,8.63,1.17,-2.67,0.10,0.84,-0.12,976.35
10.632,1.08,1.99,-1.28,8.63,1.17,-2.67,0.10,0.84,-0.12,976.35
10.634,1.08,1.99,-1.28,8.63,1.17,-2.67,1.02,0.64,1.38,976.35
10.635,1.08,1.99,-1.28,4.27,0.27,-2.67,1.02,0.64,1.38,976.35
10.637,-0.35,2.04,2.44,4.27,0.27,-2.67,1.02,0.64,1.38,976.35
10.67,-1.59,0.92,-1.35,4.27,0.27,-2.67,1.02,0.64,1.38,976.35
10.677,-1.59,0.92,-1.35,4.27,0.27,-2.67,1.49,0.15,2.27,976.35
10.68,-1.59,0.92,-1.35,-3.27,7.30,1.59,1.49,0.15,2.27,976.35
10.682,-1.11,1.04,-0.66,-3.27,7.30,1.59,1.49,0.15,2.27,976.35
10.683,-1.11,1.04,-0.66,-3.27,7.30,1.59,1.49,0.15,2.27,976.34
10.69,0.19,1.12,-0.50,-3.27,7.30,1.59,1.49,0.15,2.27,976.34
10.691,0.19,1.12,-0.50,-3.27,7.30,1.59,1.68,-0.04,0.78,976.34
10.692,0.19,1.12,-0.50,-3.48,7.36,2.14,1.68,-0.04,0.78,976.34
10.716,1.31,1.33,-0.68,-3.48,7.36,2.14,1.68,-0.04,0.78,976.34
10.73,0.61,1.83,-0.22,-3.48,7.36,2.14,1.68,-0.04,0.78,976.34
10.731,0.61,1.83,-0.22,-3.48,7.36,2.14,1.12,-0.89,1.28,976.34
10.732,0.61,1.83,-0.22,0.25,2.69,-2.81,1.12,-0.89,1.28,976.34
10.734,0.61,1.83,-0.22,0.25,2.69,-2.81,1.12,-0.89,1.28,976.33
10.75,-0.07,1.90,-0.01,0.25,2.69,-2.81,1.12,-0.89,1.28,976.33
10.769,-0.37,1.03,-0.62,0.25,2.69,-2.81,1.12,-0.89,1.28,976.33
10.77,-0.37,1.03,-0.62,0.25,2.69,-2.81,0.47,0.28,0.20,976.33
10.77,-0.37,1.03,-0.62,-0.53,6.82,0.56,0.47,0.28,0.20,976.33
10.798,0.31,0.82,-0.77,-0.53,6.82,0.56,0.47,0.28,0.20,976.33
10.8,0.31,0.82,-0.77,-0.53,6.82,0.56,0.47,0.28,0.20,976.34
10.819,1.01,0.88,-0.51,-0.53,6.82,0.56,0.47,0.28,0.20,976.34
10.821,1.01,0.88,-0.51,-0.53,6.82,0.56,0.34,-0.04,0.53,976.34
10.822,1.01,0.88,-0.51,-0.69,6.77,0.67,0.34,-0.04,0.53,976.34
10.827,0.28,0.80,-0.44,-0.69,6.77,0.67,0.34,-0.04,0.53,976.34
10.847,-0.31,0.93,-0.38,-0.69,6.77,0.67,0.34,-0.04,0.53,976.34
10.848,-0.31,0.93,-0.38,-0.69,6.77,0.67,-0.03,0.60,-0.02,976.34
10.849,-0.31,0.93,-0.38,3.80,-0.63,-2.15,-0.03,0.60,-0.02,976.34
10.85,-0.31,0.93,-0.38,3.80,-0.63,-2.15,-0.03,0.60,-0.02,976.35
10.868,-0.25,0.98,-0.28,3.80,-0.63,-2.15,-0.03,0.60,-0.02,976.35
10.89,0.14,0.90,-0.25,3.80,-0.63,-2.15,-0.03,0.60,-0.02,976.35
10.894,0.14,0.90,-0.25,3.80,-0.63,-2.15,-0.17,0.19,-0.10,976.35
10.896,0.14,0.90,-0.25,-2.71,0.35,0.37,-0.17,0.19,-0.10,976.35
10.91,0.33,0.87,-0.22,-2.71,0.35,0.37,-0.17,0.19,-0.10,976.35
10.916,0.33,0.87,-0.22,-2.71,0.35,0.37,-0.17,0.19,-0.10,976.37
10.94,0.17,0.86,-0.25,-2.71,0.35,0.37,-0.17,0.19,-0.10,976.37
10.941,0.17,0.86,-0.25,-2.71,0.35,0.37,0.02,-0.43,0.41,976.37
10.942,0.17,0.86,-0.25,-2.75,0.37,0.39,0.02,-0.43,0.41,976.37
10.947,-0.06,0.85,-0.34,-2.75,0.37,0.39,0.02,-0.43,0.41,976.37
10.979,-0.08,0.86,-0.27,-2.75,0.37,0.39,0.02,-0.43,0.41,976.37
10.981,-0.08,0.86,-0.27,-2.75,0.37,0.39,0.30,0.33,0.39,976.37
10.982,-0.08,0.86,-0.27,-0.16,-0.28,0.83,0.30,0.33,0.39,976.37
10.984,-0.08,0.86,-0.27,-0.16,-0.28,0.83,0.30,0.33,0.39,976.37
10.988,-0.05,0.90,-0.25,-0.16,-0.28,0.83,0.30,0.33,0.39,976.37
11.022,-0.02,0.91,-0.32,-0.16,-0.28,0.83,0.30,0.33,0.39,976.37
11.024,-0.02,0.91,-0.32,-0.16,-0.28,0.83,0.49,0.24,0.82,976.37
11.026,-0.02,0.91,-0.32,-2.34,0.13,0.87,0.49,0.24,0.82,976.37
11.034,0.10,0.84,-0.41,-2.34,0.13,0.87,0.49,0.24,0.82,976.37
11.036,0.10,0.84,-0.41,-2.34,0.13,0.87,0.49,0.24,0.82,976.37
11.054,0.33,0.83,-0.36,-2.34,0.13,0.87,0.49,0.24,0.82,976.37
11.055,0.33,0.83,-0.36,-2.34,0.13,0.87,0.69,0.14,1.29,976.37
11.056,0.33,0.83,-0.36,-2.75,0.33,1.08,0.69,0.14,1.29,976.37
11.064,0.24,0.90,-0.40,-2.75,0.33,1.08,0.69,0.14,1.29,976.37
11.084,0.10,0.87,-0.50,-2.75,0.33,1.08,0.69,0.14,1.29,976.37
11.085,0.10,0.87,-0.50,-2.75,0.33,1.08,0.82,0.66,1.47,976.37
11.086,0.10,0.87,-0.50,-0.65,0.30,0.19,0.82,0.66,1.47,976.37
11.094,0.10,0.87,-0.50,-0.65,0.30,0.19,0.82,0.66,1.47,976.38
11.111,0.25,0.77,-0.46,-0.65,0.30,0.19,0.82,0.66,1.47,976.38
11.124,0.47,0.71,-0.48,-0.65,0.30,0.19,0.82,0.66,1.47,976.38
11.125,0.47,0.71,-0.48,-0.65,0.30,0.19,0.84,1.15,1.73,976.38
11.126,0.47,0.71,-0.48,-0.87,-0.12,-0.58,0.84,1.15,1.73,976.38
11.144,0.60,0.80,-0.48,-0.87,-0.12,-0.58,0.84,1.15,1.73,976.38
11.15,0.60,0.80,-0.48,-0.87,-0.12,-0.58,0.84,1.15,1.73,976.38
11.164,0.49,0.81,-0.52,-0.87,-0.12,-0.58,0.84,1.15,1.73,976.38
11.166,0.49,0.81,-0.52,-0.87,-0.12,-0.58,0.76,1.13,1.91,976.38
11.168,0.49,0.81,-0.52,-1.60,0.29,-0.52,0.76,1.13,1.91,976.38
11.184,0.43,0.80,-0.55,-1.60,0.29,-0.52,0.76,1.13,1.91,976.38
11.205,0.47,1.29,-0.43,-1.60,0.29,-0.52,0.76,1.13,1.91,976.38
11.208,0.47,1.29,-0.43,-1.60,0.29,-0.52,0.68,1.19,1.90,976.38
11.21,0.47,1.29,-0.43,-0.01,0.98,-0.91,0.68,1.19,1.90,976.38
11.214,0.47,1.29,-0.43,-0.01,0.98,-0.91,0.68,1.19,1.90,976.39
11.242,0.19,1.50,-0.55,-0.01,0.98,-0.91,0.68,1.19,1.90,976.39
11.245,0.92,1.87,-0.35,-0.01,0.98,-0.91,0.68,1.19,1.90,976.39
11.247,0.92,1.87,-0.35,-0.01,0.98,-0.91,0.76,1.31,2.33,976.39
11.249,0.92,1.87,-0.35,-0.65,8.80,-0.22,0.76,1.31,2.33,976.39
11.263,1.18,2.19,-0.21,-0.65,8.80,-0.22,0.76,1.31,2.33,976.39
11.272,1.18,2.19,-0.21,-0.65,8.80,-0.22,0.76,1.31,2.33,976.38
11.284,0.09,1.57,-0.42,-0.65,8.80,-0.22,0.76,1.31,2.33,976.38
11.286,0.09,1.57,-0.42,-1.52,9.44,-0.41,0.76,1.31,2.33,976.38
11.288,0.09,1.57,-0.42,-1.52,9.44,-0.41,0.71,1.47,2.75,976.38
11.303,-0.36,0.89,-0.64,-1.52,9.44,-0.41,0.71,1.47,2.75,976.38
11.324,-0.36,0.89,-0.64,-4.18,9.87,-0.24,0.71,1.47,2.75,976.38
11.327,0.18,-0.00,-0.45,-4.18,9.87,-0.24,0.71,1.47,2.75,976.38
11.328,0.18,-0.00,-0.45,-4.18,9.87,-0.24,0.54,0.47,2.04,976.38
11.33,0.18,-0.00,-0.45,-4.18,9.87,-0.24,0.54,0.47,2.04,976.38
11.352,1.83,-0.60,-1.23,-4.18,9.87,-0.24,0.54,0.47,2.04,976.38
11.361,1.40,-0.21,-0.68,-4.18,9.87,-0.24,0.54,0.47,2.04,976.38
11.363,1.40,-0.21,-0.68,-4.18,9.87,-0.24,0.68,-2.14,2.58,976.38
11.363,1.40,-0.21,-0.68,3.81,-7.00,-3.04,0.68,-2.14,2.58,976.38
11.38,0.38,0.43,-0.64,3.81,-7.00,-3.04,0.68,-2.14,2.58,976.38
11.397,0.38,0.43,-0.64,3.81,-7.00,-3.04,0.68,-2.14,2.58,976.37
11.401,0.30,0.60,-0.09,3.81,-7.00,-3.04,0.68,-2.14,2.58,976.37
11.403,0.30,0.60,-0.09,3.81,-7.00,-3.04,0.13,-0.27,1.30,976.37
11.404,0.30,0.60,-0.09,3.58,-6.48,-2.89,0.13,-0.27,1.30,976.37
11.431,-0.10,0.13,-0.12,3.58,-6.48,-2.89,0.13,-0.27,1.30,976.37
11.441,-0.09,0.16,-0.06,3.58,-6.48,-2.89,0.13,-0.27,1.30,976.37
11.443,-0.09,0.16,-0.06,3.58,-6.48,-2.89,-0.85,1.27,-0.86,976.37
11.444,-0.09,0.16,-0.06,-5.64,-0.43,1.52,-0.85,1.27,-0.86,976.37
11.449,-0.09,0.16,-0.06,-5.64,-0.43,1.52,-0.85,1.27,-0.86,976.37
11.46,0.05,0.27,-0.02,-5.64,-0.43,1.52,-0.85,1.27,-0.86,976.37
11.48,0.11,0.31,0.10,-5.64,-0.43,1.52,-0.85,1.27,-0.86,976.37
11.483,0.11,0.31,0.10,-5.64,-0.43,1.52,-1.44,0.50,-2.20,976.37
11.485,0.11,0.31,0.10,-6.88,-2.68,3.92,-1.44,0.50,-2.20,976.37
11.503,0.09,0.25,-0.01,-6.88,-2.68,3.92,-1.44,0.50,-2.20,976.37
11.51,0.09,0.25,-0.01,-6.88,-2.68,3.92,-1.44,0.50,-2.20,976.36
11.519,0.10,0.26,-0.03,-6.88,-2.68,3.92,-1.44,0.50,-2.20,976.36
11.52,0.10,0.26,-0.03,-6.88,-2.68,3.92,-1.66,-0.45,-2.94,976.36
11.521,0.10,0.26,-0.03,-6.06,-3.64,3.61,-1.66,-0.45,-2.94,976.36
11.539,0.11,0.40,-0.06,-6.06,-3.64,3.61,-1.66,-0.45,-2.94,976.36
11.559,0.11,0.52,-0.13,-6.06,-3.64,3.61,-1.66,-0.45,-2.94,976.36
11.561,0.11,0.52,-0.13,-6.06,-3.64,3.61,-1.90,-1.00,-3.70,976.36
11.561,0.11,0.52,-0.13,-4.14,-4.07,2.91,-1.90,-1.00,-3.70,976.36
11.57,0.11,0.52,-0.13,-4.14,-4.07,2.91,-1.90,-1.00,-3.70,976.36
11.579,0.21,0.62,-0.04,-4.14,-4.07,2.91,-1.90,-1.00,-3.70,976.36
11.599,0.29,0.81,-0.08,-4.14,-4.07,2.91,-1.90,-1.00,-3.70,976.36
11.602,0.29,0.81,-0.08,-4.14,-4.07,2.91,-2.20,-1.49,-4.27,976.36
11.604,0.29,0.81,-0.08,-1.65,-1.68,1.97,-2.20,-1.49,-4.27,976.36
11.623,0.36,1.12,-0.36,-1.65,-1.68,1.97,-2.20,-1.49,-4.27,976.36
11.63,0.36,1.12,-0.36,-1.65,-1.68,1.97,-2.20,-1.49,-4.27,976.36
11.645,0.58,1.30,-0.93,-1.65,-1.68,1.97,-2.20,-1.49,-4.27,976.36
11.647,0.58,1.30,-0.93,-1.65,-1.68,1.97,-2.53,-2.53,-4.51,976.36
11.648,0.58,1.30,-0.93,0.10,-2.38,1.38,-2.53,-2.53,-4.51,976.36
11.657,0.85,1.34,-0.84,0.10,-2.38,1.38,-2.53,-2.53,-4.51,976.36
11.677,1.15,1.25,-0.78,0.10,-2.38,1.38,-2.53,-2.53,-4.51,976.36
11.68,1.15,1.25,-0.78,0.10,-2.38,1.38,-2.89,-2.97,-4.39,976.36
11.682,1.15,1.25,-0.78,5.63,3.12,-5.60,-2.89,-2.97,-4.39,976.36
11.691,1.15,1.25,-0.78,5.63,3.12,-5.60,-2.89,-2.97,-4.39,976.37
11.698,1.31,1.09,-0.75,5.63,3.12,-5.60,-2.89,-2.97,-4.39,976.37
11.719,0.69,0.92,-0.60,5.63,3.12,-5.60,-2.89,-2.97,-4.39,976.37
11.721,0.69,0.92,-0.60,5.63,3.12,-5.60,-2.19,-0.47,-3.54,976.37
11.722,0.69,0.92,-0.60,11.21,1.43,-6.29,-2.19,-0.47,-3.54,976.37
11.745,0.25,0.95,-0.69,11.21,1.43,-6.29,-2.19,-0.47,-3.54,976.37
11.749,0.25,0.95,-0.69,11.21,1.43,-6.29,-2.19,-0.47,-3.54,976.38
11.759,0.71,0.82,-0.25,11.21,1.43,-6.29,-2.19,-0.47,-3.54,976.38
11.76,0.71,0.82,-0.25,11.21,1.43,-6.29,-0.60,1.94,-1.93,976.38
11.761,0.71,0.82,-0.25,11.67,1.48,-6.30,-0.60,1.94,-1.93,976.38
11.776,1.03,0.52,-0.18,11.67,1.48,-6.30,-0.60,1.94,-1.93,976.38
11.799,1.03,0.52,-0.18,7.44,-1.66,-2.68,-0.60,1.94,-1.93,976.38
11.802,0.59,0.62,-0.38,7.44,-1.66,-2.68,-0.60,1.94,-1.93,976.38
11.804,0.59,0.62,-0.38,7.44,-1.66,-2.68,0.52,1.72,0.68,976.38
11.823,0.59,0.62,-0.38,7.44,-1.66,-2.68,0.52,1.72,0.68,976.40
11.825,-0.04,0.89,-0.66,7.44,-1.66,-2.68,0.52,1.72,0.68,976.40
11.836,0.51,2.15,-1.18,7.44,-1.66,-2.68,0.52,1.72,0.68,976.40
11.837,0.51,2.15,-1.18,7.44,-1.66,-2.68,1.36,1.82,2.11,976.40
11.837,0.51,2.15,-1.18,3.47,2.79,-5.67,1.36,1.82,2.11,976.40
11.857,-1.28,2.24,1.98,3.47,2.79,-5.67,1.36,1.82,2.11,976.40
11.87,-1.28,2.24,1.98,3.47,2.79,-5.67,1.36,1.82,2.11,976.41
11.875,-1.69,0.38,-1.67,3.47,2.79,-5.67,1.36,1.82,2.11,976.41
11.88,-1.69,0.38,-1.67,3.47,2.79,-5.67,1.80,-0.03,2.60,976.41
11.882,-1.69,0.38,-1.67,2.50,2.92,-4.93,1.80,-0.03,2.60,976.41
11.895,0.33,1.10,-0.34,2.50,2.92,-4.93,1.80,-0.03,2.60,976.41
11.921,1.03,2.09,-0.26,2.50,2.92,-4.93,1.80,-0.03,2.60,976.41
11.923,1.03,2.09,-0.26,2.50,2.92,-4.93,1.68,-0.86,1.36,976.41
11.925,1.03,2.09,-0.26,-9.75,3.28,2.86,1.68,-0.86,1.36,976.41
11.929,1.03,2.09,-0.26,-9.75,3.28,2.86,1.68,-0.86,1.36,976.41
11.934,0.08,1.40,-0.46,-9.75,3.28,2.86,1.68,-0.86,1.36,976.41
11.957,0.08,1.81,-0.48,-9.75,3.28,2.86,1.68,-0.86,1.36,976.41
11.959,0.08,1.81,-0.48,-9.75,3.28,2.86,0.84,-1.02,1.07,976.41
11.96,0.08,1.81,-0.48,2.44,8.52,-0.62,0.84,-1.02,1.07,976.41
11.975,0.68,1.61,-0.49,2.44,8.52,-0.62,0.84,-1.02,1.07,976.41
11.99,0.68,1.61,-0.49,2.44,8.52,-0.62,0.84,-1.02,1.07,976.40
11.994,1.08,0.68,-0.49,2.44,8.52,-0.62,0.84,-1.02,1.07,976.40
11.995,1.08,0.68,-0.49,2.44,8.52,-0.62,0.22,-0.92,0.94,976.40
11.996,1.08,0.68,-0.49,2.20,8.46,-0.48,0.22,-0.92,0.94,976.40
12.014,0.59,0.65,-0.57,2.20,8.46,-0.48,0.22,-0.92,0.94,976.40
12.051,0.01,0.97,-0.50,2.20,8.46,-0.48,0.22,-0.92,0.94,976.40
12.058,0.01,0.97,-0.50,2.20,8.46,-0.48,-0.00,0.54,0.06,976.40
12.059,0.01,0.97,-0.50,5.80,0.70,-1.66,-0.00,0.54,0.06,976.40
12.06,0.01,0.97,-0.50,5.80,0.70,-1.66,-0.00,0.54,0.06,976.39
12.061,-0.13,1.04,-0.28,5.80,0.70,-1.66,-0.00,0.54,0.06,976.39
12.086,-0.17,0.94,-0.19,5.80,0.70,-1.66,-0.00,0.54,0.06,976.39
12.088,-0.17,0.94,-0.19,5.80,0.70,-1.66,-0.30,0.62,-0.49,976.39
12.088,-0.17,0.94,-0.19,-2.72,0.63,0.08,-0.30,0.62,-0.49,976.39
12.092,0.03,0.82,-0.16,-2.72,0.63,0.08,-0.30,0.62,-0.49,976.39
12.109,0.03,0.82,-0.16,-2.72,0.63,0.08,-0.30,0.62,-0.49,976.40
12.112,0.14,0.75,-0.20,-2.72,0.63,0.08,-0.30,0.62,-0.49,976.40
12.113,0.14,0.75,-0.20,-2.72,0.63,0.08,-0.14,-0.26,0.17,976.40
12.114,0.14,0.75,-0.20,-2.70,0.61,0.05,-0.14,-0.26,0.17,976.40
12.132,-0.02,0.73,-0.21,-2.70,0.61,0.05,-0.14,-0.26,0.17,976.40
12.155,-0.26,0.77,-0.17,-2.70,0.61,0.05,-0.14,-0.26,0.17,976.40
12.157,-0.26,0.77,-0.17,-2.70,0.61,0.05,0.22,0.09,0.53,976.40
12.158,-0.26,0.77,-0.17,-1.40,-1.40,1.42,0.22,0.09,0.53,976.40
12.168,-0.26,0.77,-0.17,-1.40,-1.40,1.42,0.22,0.09,0.53,976.43
12.172,-0.33,0.86,-0.16,-1.40,-1.40,1.42,0.22,0.09,0.53,976.43
12.191,-0.06,1.10,-0.22,-1.40,-1.40,1.42,0.22,0.09,0.53,976.43
12.194,-0.06,1.10,-0.22,-1.40,-1.40,1.42,0.55,0.29,1.10,976.43
12.196,-0.06,1.10,-0.22,-4.36,0.18,1.61,0.55,0.29,1.10,976.43
12.228,0.30,1.11,-0.25,-4.36,0.18,1.61,0.55,0.29,1.10,976.43
12.232,0.30,1.11,-0.25,-4.36,0.18,1.61,0.55,0.29,1.10,976.43
12.234,0.39,0.74,-0.36,-4.36,0.18,1.61,0.55,0.29,1.10,976.43
12.236,0.39,0.74,-0.36,-4.36,0.18,1.61,0.92,0.12,1.86,976.43
12.239,0.39,0.74,-0.36,-4.93,0.49,1.88,0.92,0.12,1.86,976.43
12.269,0.35,0.57,-0.42,-4.93,0.49,1.88,0.92,0.12,1.86,976.43
12.274,0.47,0.64,-0.41,-4.93,0.49,1.88,0.92,0.12,1.86,976.43
12.276,0.47,0.64,-0.41,-4.93,0.49,1.88,1.09,1.08,2.07,976.43
12.277,0.47,0.64,-0.41,-0.24,-0.12,0.54,1.09,1.08,2.07,976.43
12.291,0.47,0.64,-0.41,-0.24,-0.12,0.54,1.09,1.08,2.07,976.41
12.292,0.60,0.99,-0.37,-0.24,-0.12,0.54,1.09,1.08,2.07,976.41
12.309,0.32,1.01,-0.56,-0.24,-0.12,0.54,1.09,1.08,2.07,976.41
12.312,0.32,1.01,-0.56,-0.24,-0.12,0.54,1.04,1.86,2.05,976.41
12.313,0.32,1.01,-0.56,-0.01,1.06,-0.45,1.04,1.86,2.05,976.41
12.349,0.19,0.90,-0.53,-0.01,1.06,-0.45,1.04,1.86,2.05,976.41
12.353,0.19,0.90,-0.53,-0.01,1.06,-0.45,1.04,1.86,2.05,976.40
12.355,0.56,1.49,-0.44,-0.01,1.06,-0.45,1.04,1.86,2.05,976.40
12.356,0.56,1.49,-0.44,-0.01,1.06,-0.45,1.09,2.06,2.32,976.40
12.358,0.56,1.49,-0.44,-0.97,1.66,-0.54,1.09,2.06,2.32,976.40
12.382,0.32,2.47,-0.59,-0.97,1.66,-0.54,1.09,2.06,2.32,976.40
12.391,0.32,2.47,-0.59,-3.05,9.68,-1.41,1.09,2.06,2.32,976.40
12.394,0.75,2.24,-0.46,-3.05,9.68,-1.41,1.09,2.06,2.32,976.40
12.395,0.75,2.24,-0.46,-3.05,9.68,-1.41,1.07,1.84,3.14,976.40
12.413,0.75,2.24,-0.46,-3.05,9.68,-1.41,1.07,1.84,3.14,976.40
12.414,0.95,1.73,-0.39,-3.05,9.68,-1.41,1.07,1.84,3.14,976.40
12.443,-0.14,0.97,-0.48,-3.05,9.68,-1.41,1.07,1.84,3.14,976.40
12.445,-0.14,0.97,-0.48,-3.05,9.68,-1.41,0.66,1.02,3.22,976.40
12.446,-0.14,0.97,-0.48,-2.29,10.78,-0.77,0.66,1.02,3.22,976.40
12.447,-0.12,0.16,-0.51,-2.29,10.78,-0.77,0.66,1.02,3.22,976.40
12.467,1.21,-0.74,-0.86,-2.29,10.78,-0.77,0.66,1.02,3.22,976.40
12.469,1.21,-0.74,-0.86,-2.29,10.78,-0.77,0.22,-0.56,1.96,976.40
12.469,1.21,-0.74,-0.86,-2.55,11.20,-0.55,0.22,-0.56,1.96,976.40
12.47,1.21,-0.74,-0.86,-2.55,11.20,-0.55,0.22,-0.56,1.96,976.40
12.488,2.45,-0.68,-1.33,-2.55,11.20,-0.55,0.22,-0.56,1.96,976.40
12.516,1.20,-0.04,-0.48,-2.55,11.20,-0.55,0.22,-0.56,1.96,976.40
12.518,1.20,-0.04,-0.48,-2.55,11.20,-0.55,0.16,-2.25,2.13,976.40
12.519,1.20,-0.04,-0.48,3.84,-8.26,-4.24,0.16,-2.25,2.13,976.40
12.548,0.29,0.47,0.08,3.84,-8.26,-4.24,0.16,-2.25,2.13,976.40
12.551,0.29,0.47,0.08,3.84,-8.26,-4.24,0.16,-2.25,2.13,976.40
12.552,-0.27,0.31,0.31,3.84,-8.26,-4.24,0.16,-2.25,2.13,976.40
12.554,-0.27,0.31,0.31,3.84,-8.26,-4.24,-0.53,1.29,-0.06,976.40
12.557,-0.27,0.31,0.31,-3.88,-1.83,3.74,-0.53,1.29,-0.06,976.40
12.567,-0.48,0.09,-0.06,-3.88,-1.83,3.74,-0.53,1.29,-0.06,976.40
12.587,-0.13,0.20,0.06,-3.88,-1.83,3.74,-0.53,1.29,-0.06,976.40
12.589,-0.13,0.20,0.06,-3.88,-1.83,3.74,-0.70,1.93,-1.96,976.40
12.59,-0.13,0.20,0.06,-3.74,-2.50,2.96,-0.70,1.93,-1.96,976.40
12.591,-0.13,0.20,0.06,-3.74,-2.50,2.96,-0.70,1.93,-1.96,976.40
12.611,0.13,0.27,0.06,-3.74,-2.50,2.96,-0.70,1.93,-1.96,976.40
12.642,0.22,0.35,0.09,-3.74,-2.50,2.96,-0.70,1.93,-1.96,976.40
12.644,0.22,0.35,0.09,-3.74,-2.50,2.96,-0.75,-0.78,-2.19,976.40
12.644,0.22,0.35,0.09,-8.61,-3.75,3.46,-0.75,-0.78,-2.19,976.40
12.645,0.16,0.41,0.02,-8.61,-3.75,3.46,-0.75,-0.78,-2.19,976.40
12.647,0.16,0.41,0.02,-8.61,-3.75,3.46,-0.75,-0.78,-2.19,976.41
12.665,0.11,0.42,-0.10,-8.61,-3.75,3.46,-0.75,-0.78,-2.19,976.41
12.668,0.11,0.42,-0.10,-8.61,-3.75,3.46,-1.07,-1.50,-2.70,976.41
12.669,0.11,0.42,-0.10,-4.54,-2.52,3.38,-1.07,-1.50,-2.70,976.41
12.686,0.17,0.50,-0.17,-4.54,-2.52,3.38,-1.07,-1.50,-2.70,976.41
12.706,0.22,0.55,-0.18,-4.54,-2.52,3.38,-1.07,-1.50,-2.70,976.41
12.71,0.22,0.55,-0.18,-4.54,-2.52,3.38,-1.48,-1.39,-3.64,976.41
12.713,0.22,0.55,-0.18,-3.31,-3.46,3.22,-1.48,-1.39,-3.64,976.41
12.715,0.22,0.55,-0.18,-3.31,-3.46,3.22,-1.48,-1.39,-3.64,976.40
12.74,0.55,0.66,-0.30,-3.31,-3.46,3.22,-1.48,-1.39,-3.64,976.40
12.772,0.55,0.66,-0.30,-0.37,-2.58,0.68,-1.48,-1.39,-3.64,976.40
12.774,1.01,0.94,-0.12,-0.37,-2.58,0.68,-1.48,-1.39,-3.64,976.40
12.776,1.01,0.94,-0.12,-0.37,-2.58,0.68,-1.83,-1.22,-4.18,976.40
12.777,0.72,1.12,-0.26,-0.37,-2.58,0.68,-1.83,-1.22,-4.18,976.40
12.778,0.72,1.12,-0.26,-0.37,-2.58,0.68,-1.83,-1.22,-4.18,976.40
12.783,0.07,1.09,-0.59,-0.37,-2.58,0.68,-1.83,-1.22,-4.18,976.40
12.785,0.07,1.09,-0.59,-0.37,-2.58,0.68,-1.93,0.19,-4.93,976.40
12.786,0.07,1.09,-0.59,4.02,1.38,-1.00,-1.93,0.19,-4.93,976.40
12.803,0.30,1.31,-0.74,4.02,1.38,-1.00,-1.93,0.19,-4.93,976.40
12.829,0.30,1.31,-0.74,5.79,1.04,-1.61,-1.93,0.19,-4.93,976.40
12.832,1.01,1.52,-0.56,5.79,1.04,-1.61,-1.93,0.19,-4.93,976.40
12.834,1.01,1.52,-0.56,5.79,1.04,-1.61,-1.79,0.00,-5.20,976.40
12.836,1.01,1.52,-0.56,5.79,1.04,-1.61,-1.79,0.00,-5.20,976.40
12.856,1.21,1.09,-0.62,5.79,1.04,-1.61,-1.79,0.00,-5.20,976.40
12.863,0.81,0.81,-0.43,5.79,1.04,-1.61,-1.79,0.00,-5.20,976.40
12.864,0.81,0.81,-0.43,5.79,1.04,-1.61,-1.25,0.64,-3.80,976.40
12.865,0.81,0.81,-0.43,9.34,3.55,-5.08,-1.25,0.64,-3.80,976.40
12.882,0.18,0.82,-0.39,9.34,3.55,-5.08,-1.25,0.64,-3.80,976.40
12.887,0.18,0.82,-0.39,9.34,3.55,-5.08,-1.25,0.64,-3.80,976.41
12.903,0.19,0.63,-0.27,9.34,3.55,-5.08,-1.25,0.64,-3.80,976.41
12.907,0.19,0.63,-0.27,5.48,-1.74,-2.26,-1.25,0.64,-3.80,976.41
12.91,0.19,0.63,-0.27,5.48,-1.74,-2.26,-0.19,2.05,-2.01,976.41
12.936,0.75,0.57,-0.20,5.48,-1.74,-2.26,-0.19,2.05,-2.01,976.41
12.943,0.61,0.69,-0.10,5.48,-1.74,-2.26,-0.19,2.05,-2.01,976.41
12.944,0.61,0.69,-0.10,5.48,-1.74,-2.26,0.47,0.42,1.04,976.41
12.945,0.61,0.69,-0.10,5.00,-1.74,-2.03,0.47,0.42,1.04,976.41
12.947,0.61,0.69,-0.10,5.00,-1.74,-2.03,0.47,0.42,1.04,976.42
12.966,-0.12,0.61,-0.48,5.00,-1.74,-2.03,0.47,0.42,1.04,976.42
12.981,1.22,1.76,-1.93,5.00,-1.74,-2.03,0.47,0.42,1.04,976.42
12.982,1.22,1.76,-1.93,5.00,-1.74,-2.03,1.08,-1.11,2.60,976.42
12.983,1.22,1.76,-1.93,4.27,-2.98,-0.64,1.08,-1.11,2.60,976.42
13.002,0.33,2.67,2.48,4.27,-2.98,-0.64,1.08,-1.11,2.60,976.42
13.018,0.33,2.67,2.48,4.27,-2.98,-0.64,1.08,-1.11,2.60,976.42
13.021,-2.13,0.76,-1.82,4.27,-2.98,-0.64,1.08,-1.11,2.60,976.42
13.022,-2.13,0.76,-1.82,4.27,-2.98,-0.64,1.64,-1.51,2.98,976.42
13.024,-2.13,0.76,-1.82,-2.59,7.89,-1.65,1.64,-1.51,2.98,976.42
13.045,-0.80,0.99,-0.38,-2.59,7.89,-1.65,1.64,-1.51,2.98,976.42
13.061,0.84,1.72,0.05,-2.59,7.89,-1.65,1.64,-1.51,2.98,976.42
13.063,0.84,1.72,0.05,-2.93,7.97,-1.07,1.64,-1.51,2.98,976.42
13.064,0.84,1.72,0.05,-2.93,7.97,-1.07,1.61,0.13,1.05,976.42
13.067,0.84,1.72,0.05,-2.93,7.97,-1.07,1.61,0.13,1.05,976.42
13.08,0.92,1.44,-0.55,-2.93,7.97,-1.07,1.61,0.13,1.05,976.42
13.1,0.52,1.31,-0.66,-2.93,7.97,-1.07,1.61,0.13,1.05,976.42
13.102,0.52,1.31,-0.66,-2.93,7.97,-1.07,0.90,-1.35,1.67,976.42
13.103,0.52,1.31,-0.66,1.67,4.72,0.59,0.90,-1.35,1.67,976.42
13.119,0.64,1.25,-0.41,1.67,4.72,0.59,0.90,-1.35,1.67,976.42
13.144,0.64,1.25,-0.41,1.67,4.72,0.59,0.90,-1.35,1.67,976.42
13.146,0.39,1.26,-0.39,1.67,4.72,0.59,0.90,-1.35,1.67,976.42
13.147,0.39,1.26,-0.39,1.67,4.72,0.59,0.47,0.05,0.65,976.42
13.148,0.39,1.26,-0.39,3.34,3.67,-1.10,0.47,0.05,0.65,976.42
13.159,-0.12,1.25,-0.54,3.34,3.67,-1.10,0.47,0.05,0.65,976.42
13.179,0.16,0.99,-0.51,3.34,3.67,-1.10,0.47,0.05,0.65,976.42
13.184,0.16,0.99,-0.51,3.34,3.67,-1.10,0.18,0.74,0.14,976.42
13.186,0.16,0.99,-0.51,3.13,3.64,-1.08,0.18,0.74,0.14,976.42
13.188,0.16,0.99,-0.51,3.13,3.64,-1.08,0.18,0.74,0.14,976.43
13.198,0.48,0.88,-0.40,3.13,3.64,-1.08,0.18,0.74,0.14,976.43
13.22,0.25,0.83,-0.39,3.13,3.64,-1.08,0.18,0.74,0.14,976.43
13.222,0.25,0.83,-0.39,3.13,3.64,-1.08,0.02,0.32,0.37,976.43
13.224,0.25,0.83,-0.39,-0.42,1.35,-1.03,0.02,0.32,0.37,976.43
13.254,0.15,0.72,-0.36,-0.42,1.35,-1.03,0.02,0.32,0.37,976.43
13.257,0.15,0.72,-0.36,-0.42,1.35,-1.03,0.02,0.32,0.37,976.44
13.26,0.13,0.69,-0.33,-0.42,1.35,-1.03,0.02,0.32,0.37,976.44
13.261,0.13,0.69,-0.33,-0.42,1.35,-1.03,-0.01,0.57,0.18,976.44
13.262,0.13,0.69,-0.33,-0.50,-1.52,0.12,-0.01,0.57,0.18,976.44
13.279,0.13,0.70,-0.31,-0.50,-1.52,0.12,-0.01,0.57,0.18,976.44
13.298,0.06,0.78,-0.29,-0.50,-1.52,0.12,-0.01,0.57,0.18,976.44
13.301,0.06,0.78,-0.29,-0.50,-1.52,0.12,0.09,0.42,0.29,976.44
13.303,0.06,0.78,-0.29,-0.65,-1.46,0.11,0.09,0.42,0.29,976.44
13.331,0.06,0.78,-0.29,-0.65,-1.46,0.11,0.09,0.42,0.29,976.44
13.332,-0.04,0.94,-0.25,-0.65,-1.46,0.11,0.09,0.42,0.29,976.44
13.337,0.03,1.01,-0.19,-0.65,-1.46,0.11,0.09,0.42,0.29,976.44
13.338,0.03,1.01,-0.19,-0.65,-1.46,0.11,0.27,0.35,0.60,976.44
13.339,0.03,1.01,-0.19,-2.13,-0.74,0.85,0.27,0.35,0.60,976.44
13.367,0.09,0.89,-0.14,-2.13,-0.74,0.85,0.27,0.35,0.60,976.44
13.368,0.09,0.89,-0.14,-2.13,-0.74,0.85,0.27,0.35,0.60,976.44
13.377,-0.01,0.79,-0.21,-2.13,-0.74,0.85,0.27,0.35,0.60,976.44
13.378,-0.01,0.79,-0.21,-2.13,-0.74,0.85,0.49,0.27,1.23,976.44
13.379,-0.01,0.79,-0.21,-2.65,0.35,2.00,0.49,0.27,1.23,976.44
13.395,0.23,0.82,-0.45,-2.65,0.35,2.00,0.49,0.27,1.23,976.44
13.415,0.72,1.04,-0.39,-2.65,0.35,2.00,0.49,0.27,1.23,976.44
13.416,0.72,1.04,-0.39,-2.65,0.35,2.00,0.77,0.53,1.89,976.44
13.416,0.72,1.04,-0.39,-3.29,0.71,2.14,0.77,0.53,1.89,976.44
13.426,0.72,1.04,-0.39,-3.29,0.71,2.14,0.77,0.53,1.89,976.45
13.434,0.54,0.98,-0.39,-3.29,0.71,2.14,0.77,0.53,1.89,976.45
13.454,0.20,0.78,-0.48,-3.29,0.71,2.14,0.77,0.53,1.89,976.45
13.455,0.20,0.78,-0.48,-3.29,0.71,2.14,0.97,1.79,2.00,976.45
13.455,0.20,0.78,-0.48,0.33,1.68,-0.11,0.97,1.79,2.00,976.45
13.475,0.36,1.02,-0.43,0.33,1.68,-0.11,0.97,1.79,2.00,976.45
13.486,0.36,1.02,-0.43,0.33,1.68,-0.11,0.97,1.79,2.00,976.45
13.494,0.52,1.36,-0.38,0.33,1.68,-0.11,0.97,1.79,2.00,976.45
13.495,0.52,1.36,-0.38,0.33,1.68,-0.11,0.94,2.07,2.21,976.45
13.496,0.52,1.36,-0.38,-1.96,3.23,-0.42,0.94,2.07,2.21,976.45
13.521,0.35,1.90,-0.33,-1.96,3.23,-0.42,0.94,2.07,2.21,976.45
13.534,0.69,2.60,-0.52,-1.96,3.23,-0.42,0.94,2.07,2.21,976.45
13.536,0.69,2.60,-0.52,-1.96,3.23,-0.42,0.82,1.63,2.85,976.45
13.537,0.69,2.60,-0.52,-2.90,3.97,-0.57,0.82,1.63,2.85,976.45
13.549,0.69,2.60,-0.52,-2.90,3.97,-0.57,0.82,1.63,2.85,976.44
13.553,0.48,2.11,-0.34,-2.90,3.97,-0.57,0.82,1.63,2.85,976.44
13.576,-0.44,1.10,-0.59,-2.90,3.97,-0.57,0.82,1.63,2.85,976.44
13.58,-0.44,1.10,-0.59,-2.90,3.97,-0.57,0.64,1.29,3.01,976.44
13.582,-0.44,1.10,-0.59,-2.30,15.85,-0.44,0.64,1.29,3.01,976.44
13.595,-0.34,0.09,-0.63,-2.30,15.85,-0.44,0.64,1.29,3.01,976.44
13.611,-0.34,0.09,-0.63,-2.30,15.85,-0.44,0.64,1.29,3.01,976.43
13.616,1.57,-0.69,-1.46,-2.30,15.85,-0.44,0.64,1.29,3.01,976.43
13.618,1.57,-0.69,-1.46,-4.99,-3.22,-4.81,0.64,1.29,3.01,976.43
13.62,1.57,-0.69,-1.46,-4.99,-3.22,-4.81,0.41,-1.11,2.49,976.43
13.642,1.83,-0.21,-0.47,-4.99,-3.22,-4.81,0.41,-1.11,2.49,976.43
13.653,0.28,0.35,0.08,-4.99,-3.22,-4.81,0.41,-1.11,2.49,976.43
13.653,0.28,0.35,0.08,-4.99,-3.22,-4.81,0.16,-2.13,2.18,976.43
13.654,0.28,0.35,0.08,-4.94,-2.50,-4.07,0.16,-2.13,2.18,976.43
13.672,0.28,0.35,0.08,-4.94,-2.50,-4.07,0.16,-2.13,2.18,976.43
13.674,-0.16,0.24,-0.21,-4.94,-2.50,-4.07,0.16,-2.13,2.18,976.43
13.692,-0.24,-0.02,-0.07,-4.94,-2.50,-4.07,0.16,-2.13,2.18,976.43
13.694,-0.24,-0.02,-0.07,-4.94,-2.50,-4.07,-0.62,2.18,-1.26,976.43
13.695,-0.24,-0.02,-0.07,-1.27,-3.35,1.92,-0.62,2.18,-1.26,976.43
13.715,-0.17,0.02,0.05,-1.27,-3.35,1.92,-0.62,2.18,-1.26,976.43
13.756,-0.17,0.02,0.05,-1.27,-3.35,1.92,-0.62,2.18,-1.26,976.44
13.759,-0.04,0.18,-0.09,-1.27,-3.35,1.92,-0.62,2.18,-1.26,976.44
13.761,-0.04,0.18,-0.09,-1.27,-3.35,1.92,-1.21,0.86,-2.89,976.44
13.764,-0.04,0.18,-0.09,-8.50,-4.90,2.98,-1.21,0.86,-2.89,976.44
13.766,0.07,0.24,-0.06,-8.50,-4.90,2.98,-1.21,0.86,-2.89,976.44
13.772,0.15,0.29,0.02,-8.50,-4.90,2.98,-1.21,0.86,-2.89,976.44
13.775,0.15,0.29,0.02,-8.50,-4.90,2.98,-1.48,-0.72,-3.59,976.44
13.779,0.15,0.29,0.02,-7.42,-5.93,2.76,-1.48,-0.72,-3.59,976.44
13.785,0.15,0.29,0.02,-7.42,-5.93,2.76,-1.48,-0.72,-3.59,976.44
13.795,0.40,0.49,-0.12,-7.42,-5.93,2.76,-1.48,-0.72,-3.59,976.44
13.811,0.53,0.63,-0.00,-7.42,-5.93,2.76,-1.48,-0.72,-3.59,976.44
13.812,0.53,0.63,-0.00,-7.42,-5.93,2.76,-1.57,-0.37,-4.48,976.44
13.813,0.53,0.63,-0.00,-2.61,-4.26,2.16,-1.57,-0.37,-4.48,976.44
13.842,0.44,0.65,-0.06,-2.61,-4.26,2.16,-1.57,-0.37,-4.48,976.44
13.887,0.44,0.65,-0.06,-2.61,-4.26,2.16,-1.57,-0.37,-4.48,976.44
13.891,0.48,0.75,-0.41,-2.61,-4.26,2.16,-1.57,-0.37,-4.48,976.44
13.893,0.48,0.75,-0.41,-2.61,-4.26,2.16,-1.24,-0.25,-5.09,976.44
13.896,0.48,0.75,-0.41,1.71,-1.81,0.82,-1.24,-0.25,-5.09,976.44
13.898,0.73,0.97,-0.66,1.71,-1.81,0.82,-1.24,-0.25,-5.09,976.44
13.9,0.73,0.97,-0.66,3.34,-2.24,0.62,-1.24,-0.25,-5.09,976.44
13.902,0.84,1.12,-0.53,3.34,-2.24,0.62,-1.24,-0.25,-5.09,976.44
13.904,0.84,1.12,-0.53,3.34,-2.24,0.62,-0.93,-1.74,-4.48,976.44
13.906,0.84,1.12,-0.53,3.34,-2.24,0.62,-0.93,-1.74,-4.48,976.43
13.911,0.81,1.29,-0.53,3.34,-2.24,0.62,-0.93,-1.74,-4.48,976.43
13.929,1.10,1.19,-0.48,3.34,-2.24,0.62,-0.93,-1.74,-4.48,976.43
13.931,1.10,1.19,-0.48,3.34,-2.24,0.62,-1.32,-2.68,-3.98,976.43
13.932,1.10,1.19,-0.48,7.92,1.93,-3.84,-1.32,-2.68,-3.98,976.43
13.959,1.18,0.79,-0.36,7.92,1.93,-3.84,-1.32,-2.68,-3.98,976.43
13.966,1.18,0.79,-0.36,7.92,1.93,-3.84,-1.32,-2.68,-3.98,976.43
13.969,0.69,0.85,-0.57,7.92,1.93,-3.84,-1.32,-2.68,-3.98,976.43
13.971,0.69,0.85,-0.57,7.92,1.93,-3.84,-1.12,-0.20,-2.72,976.43
13.973,0.69,0.85,-0.57,10.64,0.16,-3.16,-1.12,-0.20,-2.72,976.43
13.989,0.09,1.01,-0.51,10.64,0.16,-3.16,-1.12,-0.20,-2.72,976.43
14.028,0.25,0.79,0.04,10.64,0.16,-3.16,-1.12,-0.20,-2.72,976.43
14.032,0.25,0.79,0.04,10.64,0.16,-3.16,-0.08,1.28,-0.86,976.43
14.034,0.25,0.79,0.04,10.69,0.19,-3.08,-0.08,1.28,-0.86,976.43
14.036,0.25,0.79,0.04,10.69,0.19,-3.08,-0.08,1.28,-0.86,976.44
14.038,0.60,0.53,-0.47,10.69,0.19,-3.08,-0.08,1.28,-0.86,976.44
14.054,1.57,1.50,-2.31,10.69,0.19,-3.08,-0.08,1.28,-0.86,976.44
14.057,1.57,1.50,-2.31,10.69,0.19,-3.08,0.99,-0.90,2.05,976.44
14.059,1.57,1.50,-2.31,3.31,-1.43,-1.18,0.99,-0.90,2.05,976.44
14.068,0.75,2.51,3.04,3.31,-1.43,-1.18,0.99,-0.90,2.05,976.44
14.084,0.75,2.51,3.04,3.31,-1.43,-1.18,0.99,-0.90,2.05,976.44
14.086,-2.05,0.80,-2.02,3.31,-1.43,-1.18,0.99,-0.90,2.05,976.44
14.087,-2.05,0.80,-2.02,3.31,-1.43,-1.18,1.76,-0.57,3.37,976.44
14.088,-2.05,0.80,-2.02,0.00,6.76,-1.68,1.76,-0.57,3.37,976.44
14.108,-1.68,0.91,-0.51,0.00,6.76,-1.68,1.76,-0.57,3.37,976.44
14.135,-1.68,0.91,-0.51,-0.27,6.86,-1.08,1.76,-0.57,3.37,976.44
14.138,0.65,2.03,-0.06,-0.27,6.86,-1.08,1.76,-0.57,3.37,976.44
14.139,0.65,2.03,-0.06,-0.27,6.86,-1.08,1.74,0.69,0.56,976.44
14.171,0.65,2.03,-0.06,-0.27,6.86,-1.08,1.74,0.69,0.56,976.45
14.173,1.54,1.31,-0.41,-0.27,6.86,-1.08,1.74,0.69,0.56,976.45
14.174,0.54,1.26,-0.56,-0.27,6.86,-1.08,1.74,0.69,0.56,976.45
14.176,0.54,1.26,-0.56,-0.27,6.86,-1.08,1.06,-1.07,1.62,976.45
14.178,0.54,1.26,-0.56,0.11,5.16,0.36,1.06,-1.07,1.62,976.45
14.186,0.10,1.62,-0.57,0.11,5.16,0.36,1.06,-1.07,1.62,976.45
14.205,0.10,1.62,-0.57,0.11,5.16,0.36,1.06,-1.07,1.62,976.47
14.208,0.44,1.22,-0.45,0.11,5.16,0.36,1.06,-1.07,1.62,976.47
14.21,0.44,1.22,-0.45,0.11,5.16,0.36,0.50,0.15,0.47,976.47
14.211,0.44,1.22,-0.45,1.78,4.72,-1.42,0.50,0.15,0.47,976.47
14.228,0.20,1.03,-0.50,1.78,4.72,-1.42,0.50,0.15,0.47,976.47
14.259,0.06,1.00,-0.52,1.78,4.72,-1.42,0.50,0.15,0.47,976.47
14.261,0.06,1.00,-0.52,1.78,4.72,-1.42,0.11,0.49,0.20,976.47
14.263,0.06,1.00,-0.52,1.61,4.67,-1.39,0.11,0.49,0.20,976.47
14.266,0.06,1.00,-0.52,1.61,4.67,-1.39,0.11,0.49,0.20,976.49
14.267,0.32,0.84,-0.38,1.61,4.67,-1.39,0.11,0.49,0.20,976.49
14.286,0.18,0.74,-0.29,1.61,4.67,-1.39,0.11,0.49,0.20,976.49
14.288,0.18,0.74,-0.29,-0.19,0.64,-0.82,0.11,0.49,0.20,976.49
14.289,0.18,0.74,-0.29,-0.19,0.64,-0.82,-0.00,0.50,0.28,976.49
14.305,-0.09,0.75,-0.30,-0.19,0.64,-0.82,-0.00,0.50,0.28,976.49
14.326,-0.09,0.75,-0.30,-0.19,0.64,-0.82,-0.00,0.50,0.28,976.51
14.33,-0.14,0.77,-0.27,-0.19,0.64,-0.82,-0.00,0.50,0.28,976.51
14.331,-0.14,0.77,-0.27,-0.19,0.64,-0.82,0.12,0.79,0.29,976.51
14.333,-0.14,0.77,-0.27,-2.43,-1.28,0.89,0.12,0.79,0.29,976.51
14.349,0.06,0.76,-0.25,-2.43,-1.28,0.89,0.12,0.79,0.29,976.51
14.364,0.20,0.78,-0.20,-2.43,-1.28,0.89,0.12,0.79,0.29,976.51
14.367,0.20,0.78,-0.20,-2.43,-1.28,0.89,0.29,0.22,0.80,976.51
14.368,0.20,0.78,-0.20,-2.69,-1.14,0.95,0.29,0.22,0.80,976.51
14.383,0.09,0.90,-0.23,-2.69,-1.14,0.95,0.29,0.22,0.80,976.51
14.385,0.09,0.90,-0.23,-2.69,-1.14,0.95,0.29,0.22,0.80,976.50
14.404,0.03,0.94,-0.27,-2.69,-1.14,0.95,0.29,0.22,0.80,976.50
14.406,0.03,0.94,-0.27,-2.69,-1.14,0.95,0.51,0.18,1.25,976.50
14.408,0.03,0.94,-0.27,-1.82,-0.33,1.62,0.51,0.18,1.25,976.50
14.428,0.19,0.88,-0.32,-1.82,-0.33,1.62,0.51,0.18,1.25,976.50
14.47,0.44,0.78,-0.39,-1.82,-0.33,1.62,0.51,0.18,1.25,976.50
14.472,0.44,0.78,-0.39,-1.82,-0.33,1.62,0.73,0.54,1.76,976.50
14.474,0.44,0.78,-0.39,-1.40,0.51,0.85,0.73,0.54,1.76,976.50
14.475,0.44,0.78,-0.39,-1.40,0.51,0.85,0.73,0.54,1.76,976.48
14.478,0.62,0.75,-0.42,-1.40,0.51,0.85,0.73,0.54,1.76,976.48
14.484,0.54,0.89,-0.47,-1.40,0.51,0.85,0.73,0.54,1.76,976.48
14.487,0.54,0.89,-0.47,-1.40,0.51,0.85,0.91,1.30,2.05,976.48
14.489,0.54,0.89,-0.47,-2.20,0.96,0.91,0.91,1.30,2.05,976.48
14.502,0.37,0.93,-0.55,-2.20,0.96,0.91,0.91,1.30,2.05,976.48
14.505,0.37,0.93,-0.55,-2.20,0.96,0.91,0.91,1.30,2.05,976.48
14.526,0.39,1.18,-0.56,-2.20,0.96,0.91,0.91,1.30,2.05,976.48
14.528,0.39,1.18,-0.56,-2.20,0.96,0.91,0.94,1.78,1.97,976.48
14.53,0.39,1.18,-0.56,-0.21,1.35,-0.69,0.94,1.78,1.97,976.48
14.551,0.32,1.80,-0.54,-0.21,1.35,-0.69,0.94,1.78,1.97,976.48
14.561,0.23,2.46,-0.51,-0.21,1.35,-0.69,0.94,1.78,1.97,976.48
14.563,0.23,2.46,-0.51,-0.21,1.35,-0.69,0.85,1.73,2.48,976.48
14.563,0.23,2.46,-0.51,-3.03,11.24,-1.34,0.85,1.73,2.48,976.48
14.564,0.23,2.46,-0.51,-3.03,11.24,-1.34,0.85,1.73,2.48,976.48
14.582,0.79,2.56,-0.45,-3.03,11.24,-1.34,0.85,1.73,2.48,976.48
14.603,0.21,1.64,-0.32,-3.03,11.24,-1.34,0.85,1.73,2.48,976.48
14.606,0.21,1.64,-0.32,-3.03,11.24,-1.34,0.70,1.50,3.27,976.48
14.608,0.21,1.64,-0.32,-3.96,12.00,-1.54,0.70,1.50,3.27,976.48
14.622,-0.49,0.74,-0.51,-3.96,12.00,-1.54,0.70,1.50,3.27,976.48
14.624,-0.49,0.74,-0.51,-3.96,12.00,-1.54,0.70,1.50,3.27,976.48
14.651,-0.49,0.74,-0.51,-5.79,10.96,-0.43,0.70,1.50,3.27,976.48
14.654,0.05,-0.28,-0.66,-5.79,10.96,-0.43,0.70,1.50,3.27,976.48
14.656,0.05,-0.28,-0.66,-5.79,10.96,-0.43,0.35,0.09,2.44,976.48
14.698,1.81,-0.80,-1.64,-5.79,10.96,-0.43,0.35,0.09,2.44,976.48
14.7,1.45,-0.07,-0.08,-5.79,10.96,-0.43,0.35,0.09,2.44,976.48
14.701,1.45,-0.07,-0.08,-5.79,10.96,-0.43,0.41,-2.77,2.53,976.48
14.702,1.45,-0.07,-0.08,3.28,-8.01,-3.08,0.41,-2.77,2.53,976.48
14.702,1.45,-0.07,-0.08,3.28,-8.01,-3.08,0.41,-2.77,2.53,976.47
14.703,-0.09,0.31,0.09,3.28,-8.01,-3.08,0.41,-2.77,2.53,976.47
14.719,-0.52,0.05,-0.20,3.28,-8.01,-3.08,0.41,-2.77,2.53,976.47
14.721,-0.52,0.05,-0.20,3.28,-8.01,-3.08,-0.50,0.78,-0.38,976.47
14.723,-0.52,0.05,-0.20,3.15,-8.08,-3.34,-0.50,0.78,-0.38,976.47
14.743,-0.19,0.04,0.04,3.15,-8.08,-3.34,-0.50,0.78,-0.38,976.47
14.747,-0.19,0.04,0.04,3.15,-8.08,-3.34,-0.50,0.78,-0.38,976.46
14.779,0.01,0.18,0.04,3.15,-8.08,-3.34,-0.50,0.78,-0.38,976.46
14.782,0.01,0.18,0.04,3.15,-8.08,-3.34,-1.39,1.12,-2.72,976.46
14.783,0.01,0.18,0.04,-9.77,-3.95,3.58,-1.39,1.12,-2.72,976.46
14.785,-0.06,0.18,-0.02,-9.77,-3.95,3.58,-1.39,1.12,-2.72,976.46
14.8,0.05,0.20,0.02,-9.77,-3.95,3.58,-1.39,1.12,-2.72,976.46
14.802,0.05,0.20,0.02,-9.77,-3.95,3.58,-1.77,-0.64,-3.55,976.46
14.804,0.05,0.20,0.02,-6.18,-4.57,3.59,-1.77,-0.64,-3.55,976.46
14.805,0.05,0.20,0.02,-6.18,-4.57,3.59,-1.77,-0.64,-3.55,976.45
14.82,0.25,0.30,-0.04,-6.18,-4.57,3.59,-1.77,-0.64,-3.55,976.45
14.845,0.39,0.44,-0.24,-6.18,-4.57,3.59,-1.77,-0.64,-3.55,976.45
14.848,0.39,0.44,-0.24,-6.18,-4.57,3.59,-1.91,-0.92,-4.18,976.45
14.85,0.39,0.44,-0.24,-4.82,-5.64,3.21,-1.91,-0.92,-4.18,976.45
14.859,0.44,0.57,-0.25,-4.82,-5.64,3.21,-1.91,-0.92,-4.18,976.45
14.885,0.44,0.57,-0.25,-4.82,-5.64,3.21,-1.91,-0.92,-4.18,976.44
14.887,0.52,0.76,-0.25,-4.82,-5.64,3.21,-1.91,-0.92,-4.18,976.44
14.888,0.52,0.76,-0.25,-4.82,-5.64,3.21,-1.89,-1.07,-4.96,976.44
14.889,0.52,0.76,-0.25,0.38,-4.10,0.90,-1.89,-1.07,-4.96,976.44
14.897,0.83,0.97,-0.53,0.38,-4.10,0.90,-1.89,-1.07,-4.96,976.44
14.918,0.88,1.13,-0.62,0.38,-4.10,0.90,-1.89,-1.07,-4.96,976.44
14.92,0.88,1.13,-0.62,0.38,-4.10,0.90,-1.55,-1.68,-4.85,976.44
14.922,0.88,1.13,-0.62,5.89,0.40,-2.28,-1.55,-1.68,-4.85,976.44
14.924,0.88,1.13,-0.62,5.89,0.40,-2.28,-1.55,-1.68,-4.85,976.44
14.941,0.85,1.46,-0.66,5.89,0.40,-2.28,-1.55,-1.68,-4.85,976.44
14.957,1.01,1.33,-0.59,5.89,0.40,-2.28,-1.55,-1.68,-4.85,976.44
14.958,1.01,1.33,-0.59,5.89,0.40,-2.28,-1.43,-1.86,-4.18,976.44
14.959,1.01,1.33,-0.59,7.41,0.18,-2.71,-1.43,-1.86,-4.18,976.44
14.976,0.92,0.71,-0.32,7.41,0.18,-2.71,-1.43,-1.86,-4.18,976.44
14.985,0.92,0.71,-0.32,7.41,0.18,-2.71,-1.43,-1.86,-4.18,976.45
15.0,0.92,0.71,-0.32,10.00,2.25,-3.55,-1.43,-1.86,-4.18,976.45
15.003,0.60,0.89,-0.47,10.00,2.25,-3.55,-1.43,-1.86,-4.18,976.45
15.005,0.60,0.89,-0.47,10.00,2.25,-3.55,-1.07,0.60,-2.67,976.45
15.016,0.45,1.07,-0.60,10.00,2.25,-3.55,-1.07,0.60,-2.67,976.45
15.039,0.70,0.82,-0.13,10.00,2.25,-3.55,-1.07,0.60,-2.67,976.45
15.041,0.70,0.82,-0.13,10.00,2.25,-3.55,-0.11,1.52,-0.71,976.45
15.042,0.70,0.82,-0.13,6.68,-0.11,-2.31,-0.11,1.52,-0.71,976.45
15.043,0.70,0.82,-0.13,6.68,-0.11,-2.31,-0.11,1.52,-0.71,976.46
15.069,0.62,0.64,-0.29,6.68,-0.11,-2.31,-0.11,1.52,-0.71,976.46
15.076,1.89,2.07,-1.51,6.68,-0.11,-2.31,-0.11,1.52,-0.71,976.46
15.078,1.89,2.07,-1.51,6.68,-0.11,-2.31,0.83,0.32,1.82,976.46
15.08,1.89,2.07,-1.51,5.89,-0.09,-1.97,0.83,0.32,1.82,976.46
15.095,-0.82,2.67,2.59,5.89,-0.09,-1.97,0.83,0.32,1.82,976.46
15.103,-0.82,2.67,2.59,5.89,-0.09,-1.97,0.83,0.32,1.82,976.47
15.114,-3.61,0.67,-2.26,5.89,-0.09,-1.97,0.83,0.32,1.82,976.47
15.115,-3.61,0.67,-2.26,5.89,-0.09,-1.97,1.48,0.27,2.67,976.47
15.116,-3.61,0.67,-2.26,4.60,8.44,4.98,1.48,0.27,2.67,976.47
15.144,-1.52,0.36,-0.88,4.60,8.44,4.98,1.48,0.27,2.67,976.47
15.155,2.67,1.93,-0.09,4.60,8.44,4.98,1.48,0.27,2.67,976.47
15.157,2.67,1.93,-0.09,4.60,8.44,4.98,1.65,-1.61,1.27,976.47
15.158,2.67,1.93,-0.09,-9.03,0.75,-7.36,1.65,-1.61,1.27,976.47
15.181,2.67,1.93,-0.09,-9.03,0.75,-7.36,1.65,-1.61,1.27,976.47
15.184,2.39,1.08,0.02,-9.03,0.75,-7.36,1.65,-1.61,1.27,976.47
15.197,-0.43,1.08,-0.68,-9.03,0.75,-7.36,1.65,-1.61,1.27,976.47
15.199,-0.43,1.08,-0.68,-9.03,0.75,-7.36,1.08,-0.70,1.99,976.47
15.199,-0.43,1.08,-0.68,-9.46,0.98,-6.83,1.08,-0.70,1.99,976.47
15.215,-0.65,1.94,-0.79,-9.46,0.98,-6.83,1.08,-0.70,1.99,976.47
15.224,-0.65,1.94,-0.79,-9.46,0.98,-6.83,1.08,-0.70,1.99,976.47
15.244,0.08,1.25,-0.53,-9.46,0.98,-6.83,1.08,-0.70,1.99,976.47
15.247,0.08,1.25,-0.53,-9.46,0.98,-6.83,0.37,0.48,0.23,976.47
15.249,0.08,1.25,-0.53,2.64,4.67,-0.87,0.37,0.48,0.23,976.47
15.253,1.16,0.61,-0.34,2.64,4.67,-0.87,0.37,0.48,0.23,976.47
15.278,0.71,0.74,-0.44,2.64,4.67,-0.87,0.37,0.48,0.23,976.47
15.281,0.71,0.74,-0.44,2.64,4.67,-0.87,-0.01,-0.39,1.05,976.47
15.283,0.71,0.74,-0.44,4.33,-0.13,-0.40,-0.01,-0.39,1.05,976.47
15.285,0.71,0.74,-0.44,4.33,-0.13,-0.40,-0.01,-0.39,1.05,976.47
15.292,-0.09,1.07,-0.48,4.33,-0.13,-0.40,-0.01,-0.39,1.05,976.47
15.325,-0.06,1.03,-0.29,4.33,-0.13,-0.40,-0.01,-0.39,1.05,976.47
15.33,-0.06,1.03,-0.29,4.33,-0.13,-0.40,-0.12,0.44,0.11,976.47
15.332,-0.06,1.03,-0.29,4.15,-0.14,-0.47,-0.12,0.44,0.11,976.47
15.333,0.12,0.83,-0.19,4.15,-0.14,-0.47,-0.12,0.44,0.11,976.47
15.359,0.12,0.83,-0.19,4.15,-0.14,-0.47,-0.12,0.44,0.11,976.49
15.361,0.01,0.81,-0.22,4.15,-0.14,-0.47,-0.12,0.44,0.11,976.49
15.362,0.01,0.81,-0.22,4.15,-0.14,-0.47,-0.04,0.38,0.29,976.49
15.363,0.01,0.81,-0.22,-2.43,0.93,0.61,-0.04,0.38,0.29,976.49
15.371,0.01,0.85,-0.25,-2.43,0.93,0.61,-0.04,0.38,0.29,976.49
15.392,0.19,0.84,-0.24,-2.43,0.93,0.61,-0.04,0.38,0.29,976.49
15.395,0.19,0.84,-0.24,-2.43,0.93,0.61,0.22,0.06,0.82,976.49
15.396,0.19,0.84,-0.24,-1.88,-0.36,1.47,0.22,0.06,0.82,976.49
15.403,0.19,0.84,-0.24,-1.88,-0.36,1.47,0.22,0.06,0.82,976.50
15.413,0.13,0.84,-0.26,-1.88,-0.36,1.47,0.22,0.06,0.82,976.50
15.432,0.13,0.84,-0.26,-2.29,-0.16,1.55,0.22,0.06,0.82,976.50
15.434,-0.00,0.91,-0.29,-2.29,-0.16,1.55,0.22,0.06,0.82,976.50
15.435,-0.00,0.91,-0.29,-2.29,-0.16,1.55,0.47,0.38,1.17,976.50
15.468,0.17,0.88,-0.32,-2.29,-0.16,1.55,0.47,0.38,1.17,976.50
15.472,0.17,0.88,-0.32,-2.29,-0.16,1.55,0.47,0.38,1.17,976.51
15.474,0.45,0.84,-0.36,-2.29,-0.16,1.55,0.47,0.38,1.17,976.51
15.476,0.45,0.84,-0.36,-2.29,-0.16,1.55,0.65,0.74,1.68,976.51
15.478,0.45,0.84,-0.36,-2.61,0.60,1.14,0.65,0.74,1.68,976.51
15.5,0.42,0.78,-0.46,-2.61,0.60,1.14,0.65,0.74,1.68,976.51
15.511,0.34,0.83,-0.47,-2.61,0.60,1.14,0.65,0.74,1.68,976.51
15.513,0.34,0.83,-0.47,-2.61,0.60,1.14,0.75,1.35,2.05,976.51
15.514,0.34,0.83,-0.47,-0.45,0.43,-0.23,0.75,1.35,2.05,976.51
15.523,0.34,0.83,-0.47,-0.45,0.43,-0.23,0.75,1.35,2.05,976.50
15.53,0.36,0.94,-0.44,-0.45,0.43,-0.23,0.75,1.35,2.05,976.50
15.572,0.49,1.19,-0.41,-0.45,0.43,-0.23,0.75,1.35,2.05,976.50
15.577,0.49,1.19,-0.41,-0.45,0.43,-0.23,0.78,1.81,2.23,976.50
15.579,0.49,1.19,-0.41,-1.35,0.97,-0.35,0.78,1.81,2.23,976.50
15.58,0.40,1.86,-0.30,-1.35,0.97,-0.35,0.78,1.81,2.23,976.50
15.607,0.40,1.86,-0.30,-1.35,0.97,-0.35,0.78,1.81,2.23,976.49
15.609,0.24,2.25,-0.50,-1.35,0.97,-0.35,0.78,1.81,2.23,976.49
15.609,0.24,2.25,-0.50,-1.35,0.97,-0.35,0.80,2.03,2.76,976.49
15.61,0.24,2.25,-0.50,-2.23,6.63,-0.13,0.80,2.03,2.76,976.49
15.611,0.91,2.42,-0.46,-2.23,6.63,-0.13,0.80,2.03,2.76,976.49
15.634,0.31,1.50,-0.42,-2.23,6.63,-0.13,0.80,2.03,2.76,976.49
15.635,0.31,1.50,-0.42,-2.23,6.63,-0.13,0.53,0.94,3.35,976.49
15.636,0.31,1.50,-0.42,-2.40,14.47,-0.97,0.53,0.94,3.35,976.49
15.643,0.31,1.50,-0.42,-2.40,14.47,-0.97,0.53,0.94,3.35,976.48
15.669,-0.31,0.69,-0.45,-2.40,14.47,-0.97,0.53,0.94,3.35,976.48
15.671,0.08,-0.12,-0.62,-2.40,14.47,-0.97,0.53,0.94,3.35,976.48
15.672,0.08,-0.12,-0.62,-2.87,14.95,-0.94,0.53,0.94,3.35,976.48
15.673,0.08,-0.12,-0.62,-2.87,14.95,-0.94,0.18,0.09,2.39,976.48
15.687,1.27,-0.45,-1.03,-2.87,14.95,-0.94,0.18,0.09,2.39,976.48
15.703,1.27,-0.45,-1.03,-2.87,14.95,-0.94,0.18,0.09,2.39,976.49
15.708,1.29,-0.10,-0.34,-2.87,14.95,-0.94,0.18,0.09,2.39,976.49
15.71,1.29,-0.10,-0.34,-2.87,14.95,-0.94,0.36,-2.34,1.99,976.49
15.712,1.29,-0.10,-0.34,-4.22,-4.09,-2.51,0.36,-2.34,1.99,976.49
15.749,0.26,-0.08,-0.01,-4.22,-4.09,-2.51,0.36,-2.34,1.99,976.49
15.753,0.07,-0.07,-0.25,-4.22,-4.09,-2.51,0.36,-2.34,1.99,976.49
15.756,0.07,-0.07,-0.25,-4.22,-4.09,-2.51,-0.53,0.20,-0.46,976.49
15.758,0.07,-0.07,-0.25,-2.23,-5.40,2.19,-0.53,0.20,-0.46,976.49
15.775,0.07,-0.07,-0.25,-2.23,-5.40,2.19,-0.53,0.20,-0.46,976.50
15.777,-0.03,0.10,-0.01,-2.23,-5.40,2.19,-0.53,0.20,-0.46,976.50
15.786,-0.12,0.20,-0.06,-2.23,-5.40,2.19,-0.53,0.20,-0.46,976.50
15.787,-0.12,0.20,-0.06,-2.23,-5.40,2.19,-1.34,1.03,-2.67,976.50
15.788,-0.12,0.20,-0.06,-1.82,-6.28,1.59,-1.34,1.03,-2.67,976.50
15.805,0.02,0.25,-0.07,-1.82,-6.28,1.59,-1.34,1.03,-2.67,976.50
15.822,0.02,0.25,-0.07,-1.82,-6.28,1.59,-1.34,1.03,-2.67,976.49
15.826,0.17,0.29,-0.03,-1.82,-6.28,1.59,-1.34,1.03,-2.67,976.49
15.828,0.17,0.29,-0.03,-1.82,-6.28,1.59,-1.52,-0.27,-3.63,976.49
15.83,0.17,0.29,-0.03,-6.50,-4.77,2.79,-1.52,-0.27,-3.63,976.49
15.845,0.14,0.38,-0.00,-6.50,-4.77,2.79,-1.52,-0.27,-3.63,976.49
15.885,0.24,0.48,-0.11,-6.50,-4.77,2.79,-1.52,-0.27,-3.63,976.49
15.887,0.24,0.48,-0.11,-6.50,-4.77,2.79,-1.57,-0.46,-4.26,976.49
15.888,0.24,0.48,-0.11,-2.99,-3.81,2.39,-1.57,-0.46,-4.26,976.49
15.889,0.24,0.48,-0.11,-2.99,-3.81,2.39,-1.57,-0.46,-4.26,976.49
15.89,0.49,0.68,-0.17,-2.99,-3.81,2.39,-1.57,-0.46,-4.26,976.49
15.905,0.73,1.00,-0.19,-2.99,-3.81,2.39,-1.57,-0.46,-4.26,976.49
15.908,0.73,1.00,-0.19,-2.99,-3.81,2.39,-1.55,-0.72,-5.01,976.49
15.909,0.73,1.00,-0.19,-1.29,-4.68,1.97,-1.55,-0.72,-5.01,976.49
15.925,0.83,1.03,-0.43,-1.29,-4.68,1.97,-1.55,-0.72,-5.01,976.49
15.944,0.83,1.03,-0.43,-1.29,-4.68,1.97,-1.55,-0.72,-5.01,976.48
15.949,0.83,1.03,-0.43,5.35,-0.16,-0.54,-1.55,-0.72,-5.01,976.48
15.952,0.75,1.04,-0.47,5.35,-0.16,-0.54,-1.55,-0.72,-5.01,976.48
15.953,0.75,1.04,-0.47,5.35,-0.16,-0.54,-1.42,-1.03,-4.98,976.48
15.972,0.59,1.34,-0.51,5.35,-0.16,-0.54,-1.42,-1.03,-4.98,976.48
15.984,0.58,1.44,-0.63,5.35,-0.16,-0.54,-1.42,-1.03,-4.98,976.48
15.986,0.58,1.44,-0.63,5.35,-0.16,-0.54,-1.29,-1.91,-4.20,976.48
15.987,0.58,1.44,-0.63,6.45,3.22,-3.62,-1.29,-1.91,-4.20,976.48
16.002,0.58,1.44,-0.63,6.45,3.22,-3.62,-1.29,-1.91,-4.20,976.49
16.004,0.84,1.04,-0.56,6.45,3.22,-3.62,-1.29,-1.91,-4.20,976.49
16.024,0.92,0.78,-0.35,6.45,3.22,-3.62,-1.29,-1.91,-4.20,976.49
16.025,0.92,0.78,-0.35,6.45,3.22,-3.62,-0.75,-1.63,-2.51,976.49
16.026,0.92,0.78,-0.35,7.34,3.19,-3.87,-0.75,-1.63,-2.51,976.49
16.043,0.67,0.76,-0.43,7.34,3.19,-3.87,-0.75,-1.63,-2.51,976.49
16.08,0.67,0.76,-0.43,7.34,3.19,-3.87,-0.75,-1.63,-2.51,976.50
16.084,0.68,0.68,-0.33,7.34,3.19,-3.87,-0.75,-1.63,-2.51,976.50
16.086,0.68,0.68,-0.33,7.34,3.19,-3.87,0.05,-0.27,-0.56,976.50
16.088,0.68,0.68,-0.33,9.10,-0.80,-2.90,0.05,-0.27,-0.56,976.50
16.089,0.71,0.70,-0.20,9.10,-0.80,-2.90,0.05,-0.27,-0.56,976.50
16.103,0.38,0.79,-0.50,9.10,-0.80,-2.90,0.05,-0.27,-0.56,976.50
16.106,0.38,0.79,-0.50,9.10,-0.80,-2.90,0.71,0.86,1.07,976.50
16.107,0.38,0.79,-0.50,6.40,-2.12,-1.56,0.71,0.86,1.07,976.50
16.122,0.38,0.79,-0.50,6.40,-2.12,-1.56,0.71,0.86,1.07,976.51
16.124,0.05,1.08,-0.40,6.40,-2.12,-1.56,0.71,0.86,1.07,976.51
16.148,0.05,1.08,-0.40,5.42,-2.00,-1.08,0.71,0.86,1.07,976.51
16.15,1.03,2.85,-0.38,5.42,-2.00,-1.08,0.71,0.86,1.07,976.51
16.151,1.03,2.85,-0.38,5.42,-2.00,-1.08,1.26,0.84,2.29,976.51
16.164,-1.56,1.46,1.26,5.42,-2.00,-1.08,1.26,0.84,2.29,976.51
16.181,-1.56,1.46,1.26,5.42,-2.00,-1.08,1.26,0.84,2.29,976.52
16.183,-1.55,0.63,-1.34,5.42,-2.00,-1.08,1.26,0.84,2.29,976.52
16.183,-1.55,0.63,-1.34,5.42,-2.00,-1.08,1.59,0.21,2.06,976.52
16.184,-1.55,0.63,-1.34,-2.67,8.62,4.29,1.59,0.21,2.06,976.52
16.201,-0.24,1.52,-0.30,-2.67,8.62,4.29,1.59,0.21,2.06,976.52
16.221,0.64,1.47,-0.33,-2.67,8.62,4.29,1.59,0.21,2.06,976.52
16.222,0.64,1.47,-0.33,-2.67,8.62,4.29,1.22,-1.53,1.33,976.52
16.222,0.64,1.47,-0.33,-5.09,3.00,-3.11,1.22,-1.53,1.33,976.52
16.243,1.15,0.98,-0.71,-5.09,3.00,-3.11,1.22,-1.53,1.33,976.52
16.245,1.15,0.98,-0.71,-5.09,3.00,-3.11,1.22,-1.53,1.33,976.53
16.26,0.71,1.12,-0.59,-5.09,3.00,-3.11,1.22,-1.53,1.33,976.53
16.262,0.71,1.12,-0.59,-5.09,3.00,-3.11,0.92,-1.28,1.74,976.53
16.262,0.71,1.12,-0.59,-5.42,3.18,-2.67,0.92,-1.28,1.74,976.53
16.28,0.59,1.20,-0.46,-5.42,3.18,-2.67,0.92,-1.28,1.74,976.53
16.301,0.38,0.91,-0.47,-5.42,3.18,-2.67,0.92,-1.28,1.74,976.53
16.305,0.38,0.91,-0.47,-5.42,3.18,-2.67,0.35,0.20,0.28,976.53
16.307,0.38,0.91,-0.47,-5.42,3.18,-2.67,0.35,0.20,0.28,976.54
16.309,0.38,0.91,-0.47,6.16,2.16,-1.84,0.35,0.20,0.28,976.54
16.319,0.07,1.27,-0.39,6.16,2.16,-1.84,0.35,0.20,0.28,976.54
