time,gFx,gFy,gFz,ax,ay,az,wx,wy,wz,P
0.003,-0.10,0.97,0.00,-0.29,-0.02,0.17,0.02,-0.08,-0.04,976.17
0.004,-0.10,0.97,0.00,-0.29,-0.02,0.17,0.02,-0.08,-0.04,976.17
0.017,-0.14,1.02,-0.03,-0.29,-0.02,0.17,0.02,-0.08,-0.04,976.17
0.018,-0.14,1.02,-0.03,-0.29,-0.02,0.17,-0.00,-0.07,-0.02,976.17
0.018,-0.14,1.02,-0.03,-0.02,0.05,-0.14,-0.00,-0.07,-0.02,976.17
0.037,-0.08,1.02,-0.03,-0.02,0.05,-0.14,-0.00,-0.07,-0.02,976.17
0.057,-0.04,1.00,-0.02,-0.02,0.05,-0.14,-0.00,-0.07,-0.02,976.17
0.058,-0.04,1.00,-0.02,-0.02,0.05,-0.14,-0.02,-0.01,-0.02,976.17
0.058,-0.04,1.00,-0.02,-0.02,0.15,-0.19,-0.02,-0.01,-0.02,976.17
0.068,-0.04,1.00,-0.02,-0.02,0.15,-0.19,-0.02,-0.01,-0.02,976.18
0.077,-0.10,1.02,-0.03,-0.02,0.15,-0.19,-0.02,-0.01,-0.02,976.18
0.096,-0.15,1.00,-0.03,-0.02,0.15,-0.19,-0.02,-0.01,-0.02,976.18
0.097,-0.15,1.00,-0.03,-0.02,0.15,-0.19,-0.02,0.02,-0.07,976.18
0.097,-0.15,1.00,-0.03,0.00,0.15,-0.20,-0.02,0.02,-0.07,976.18
0.116,-0.14,0.98,-0.03,0.00,0.15,-0.20,-0.02,0.02,-0.07,976.18
0.122,-0.14,0.98,-0.03,0.00,0.15,-0.20,-0.02,0.02,-0.07,976.17
0.136,-0.10,1.01,-0.01,0.00,0.15,-0.20,-0.02,0.02,-0.07,976.17
0.137,-0.10,1.01,-0.01,0.00,0.15,-0.20,-0.04,-0.01,-0.05,976.17
0.138,-0.10,1.01,-0.01,-0.41,0.04,-0.23,-0.04,-0.01,-0.05,976.17
0.156,-0.09,0.99,-0.00,-0.41,0.04,-0.23,-0.04,-0.01,-0.05,976.17
0.178,-0.09,1.01,0.01,-0.41,0.04,-0.23,-0.04,-0.01,-0.05,976.17
0.18,-0.09,1.01,0.01,-0.41,0.04,-0.23,-0.06,-0.02,-0.02,976.17
0.182,-0.09,1.01,0.01,-0.04,0.05,0.02,-0.06,-0.02,-0.02,976.17
0.183,-0.09,1.01,0.01,-0.04,0.05,0.02,-0.06,-0.02,-0.02,976.16
0.196,-0.08,1.01,-0.02,-0.04,0.05,0.02,-0.06,-0.02,-0.02,976.16
0.215,-0.06,1.00,-0.06,-0.04,0.05,0.02,-0.06,-0.02,-0.02,976.16
0.217,-0.06,1.00,-0.06,-0.04,0.05,0.02,-0.05,0.11,-0.05,976.16
0.217,-0.06,1.00,-0.06,-0.02,0.05,0.00,-0.05,0.11,-0.05,976.16
0.235,-0.02,1.00,-0.06,-0.02,0.05,0.00,-0.05,0.11,-0.05,976.16
0.246,-0.02,1.00,-0.06,-0.02,0.05,0.00,-0.05,0.11,-0.05,976.17
0.255,-0.03,1.01,-0.03,-0.02,0.05,0.00,-0.05,0.11,-0.05,976.17
0.257,-0.03,1.01,-0.03,0.42,0.07,-0.45,-0.05,0.11,-0.05,976.17
0.258,-0.03,1.01,-0.03,0.42,0.07,-0.45,-0.08,0.27,-0.12,976.17
0.276,-0.09,1.04,-0.01,0.42,0.07,-0.45,-0.08,0.27,-0.12,976.17
0.317,-0.09,1.04,-0.01,0.11,0.31,-0.10,-0.08,0.27,-0.12,976.17
0.318,-0.16,1.02,0.01,0.11,0.31,-0.10,-0.08,0.27,-0.12,976.17
0.319,-0.16,1.02,0.01,0.11,0.31,-0.10,-0.10,0.58,-0.24,976.17
0.32,-0.16,1.02,0.01,0.11,0.31,-0.10,-0.10,0.58,-0.24,976.17
0.32,-0.17,0.97,0.01,0.11,0.31,-0.10,-0.10,0.58,-0.24,976.17
0.342,-0.15,0.96,0.02,0.11,0.31,-0.10,-0.10,0.58,-0.24,976.17
0.343,-0.15,0.96,0.02,0.11,0.31,-0.10,-0.09,0.54,-0.26,976.17
0.344,-0.15,0.96,0.02,0.21,0.31,-0.11,-0.09,0.54,-0.26,976.17
0.354,-0.15,0.96,-0.00,0.21,0.31,-0.11,-0.09,0.54,-0.26,976.17
0.363,-0.15,0.96,-0.00,0.21,0.31,-0.11,-0.09,0.54,-0.26,976.17
0.374,-0.18,0.97,-0.01,0.21,0.31,-0.11,-0.09,0.54,-0.26,976.17
0.376,-0.18,0.97,-0.01,0.21,0.31,-0.11,-0.01,0.41,-0.21,976.17
0.378,-0.18,0.97,-0.01,-0.32,-0.26,0.08,-0.01,0.41,-0.21,976.17
0.404,-0.21,1.03,0.00,-0.32,-0.26,0.08,-0.01,0.41,-0.21,976.17
0.417,-0.21,1.03,0.00,-0.69,0.24,-0.01,-0.01,0.41,-0.21,976.17
0.418,-0.21,1.04,0.00,-0.69,0.24,-0.01,-0.01,0.41,-0.21,976.17
0.419,-0.21,1.04,0.00,-0.69,0.24,-0.01,-0.01,0.39,-0.13,976.17
0.422,-0.21,1.04,0.00,-0.69,0.24,-0.01,-0.01,0.39,-0.13,976.16
0.433,-0.20,0.97,0.01,-0.69,0.24,-0.01,-0.01,0.39,-0.13,976.16
0.454,-0.18,0.94,0.03,-0.69,0.24,-0.01,-0.01,0.39,-0.13,976.16
0.456,-0.18,0.94,0.03,-0.69,0.24,-0.01,-0.03,0.11,-0.04,976.16
0.458,-0.18,0.94,0.03,-0.66,0.24,-0.01,-0.03,0.11,-0.04,976.16
0.473,-0.16,0.97,0.02,-0.66,0.24,-0.01,-0.03,0.11,-0.04,976.16
0.496,-0.16,0.97,0.02,-0.66,0.24,-0.01,-0.03,0.11,-0.04,976.16
0.497,-0.14,1.02,-0.03,-0.66,0.24,-0.01,-0.03,0.11,-0.04,976.16
0.498,-0.14,1.02,-0.03,-0.66,0.24,-0.01,0.01,0.13,0.05,976.16
0.499,-0.14,1.02,-0.03,-0.49,-0.29,0.17,0.01,0.13,0.05,976.16
0.516,-0.16,1.05,-0.02,-0.49,-0.29,0.17,0.01,0.13,0.05,976.16
0.531,-0.21,1.01,-0.01,-0.49,-0.29,0.17,0.01,0.13,0.05,976.16
0.532,-0.21,1.01,-0.01,-0.49,-0.29,0.17,-0.00,0.22,0.08,976.16
0.533,-0.21,1.01,-0.01,-0.38,0.32,-0.16,-0.00,0.22,0.08,976.16
0.542,-0.21,1.01,-0.01,-0.38,0.32,-0.16,-0.00,0.22,0.08,976.16
0.551,-0.16,0.95,0.00,-0.38,0.32,-0.16,-0.00,0.22,0.08,976.16
0.572,-0.11,0.99,0.03,-0.38,0.32,-0.16,-0.00,0.22,0.08,976.16
0.574,-0.11,0.99,0.03,-0.38,0.32,-0.16,-0.07,0.11,0.10,976.16
0.575,-0.11,0.99,0.03,-0.41,0.31,-0.17,-0.07,0.11,0.10,976.16
0.6,-0.14,0.97,-0.00,-0.41,0.31,-0.17,-0.07,0.11,0.10,976.16
0.602,-0.14,0.97,-0.00,-0.41,0.31,-0.17,-0.07,0.11,0.10,976.16
0.61,-0.19,0.98,-0.05,-0.41,0.31,-0.17,-0.07,0.11,0.10,976.16
0.611,-0.19,0.98,-0.05,-0.41,0.31,-0.17,-0.07,0.20,0.13,976.16
0.613,-0.19,0.98,-0.05,-0.15,-0.22,0.07,-0.07,0.20,0.13,976.16
0.631,-0.28,1.01,-0.05,-0.15,-0.22,0.07,-0.07,0.20,0.13,976.16
0.65,-0.31,1.01,-0.00,-0.15,-0.22,0.07,-0.07,0.20,0.13,976.16
0.652,-0.31,1.01,-0.00,-0.15,-0.22,0.07,-0.12,0.31,0.25,976.16
0.653,-0.31,1.01,-0.00,-1.40,0.07,-0.38,-0.12,0.31,0.25,976.16
0.661,-0.31,1.01,-0.00,-1.40,0.07,-0.38,-0.12,0.31,0.25,976.16
0.669,-0.19,0.99,0.01,-1.40,0.07,-0.38,-0.12,0.31,0.25,976.16
0.69,-0.08,0.93,0.05,-1.40,0.07,-0.38,-0.12,0.31,0.25,976.16
0.691,-0.08,0.93,0.05,-1.40,0.07,-0.38,-0.21,-0.03,0.52,976.16
0.692,-0.08,0.93,0.05,-1.58,0.05,-0.45,-0.21,-0.03,0.52,976.16
0.71,-0.02,0.94,0.06,-1.58,0.05,-0.45,-0.21,-0.03,0.52,976.16
0.722,-0.02,0.94,0.06,-1.58,0.05,-0.45,-0.21,-0.03,0.52,976.16
0.738,-0.01,1.01,0.04,-1.58,0.05,-0.45,-0.21,-0.03,0.52,976.16
0.74,-0.01,1.01,0.04,-1.58,0.05,-0.45,-0.19,0.05,0.62,976.16
0.742,-0.01,1.01,0.04,-0.23,-0.44,0.18,-0.19,0.05,0.62,976.16
0.749,-0.00,1.07,0.03,-0.23,-0.44,0.18,-0.19,0.05,0.62,976.16
0.777,-0.00,1.07,0.03,0.32,0.42,0.16,-0.19,0.05,0.62,976.16
0.778,-0.06,1.05,0.05,0.32,0.42,0.16,-0.19,0.05,0.62,976.16
0.779,-0.06,1.05,0.05,0.32,0.42,0.16,-0.13,0.59,0.44,976.16
0.806,-0.06,1.05,0.05,0.32,0.42,0.16,-0.13,0.59,0.44,976.16
0.808,-0.16,0.99,0.06,0.32,0.42,0.16,-0.13,0.59,0.44,976.16
0.809,-0.22,0.98,0.07,0.32,0.42,0.16,-0.13,0.59,0.44,976.16
0.81,-0.22,0.98,0.07,0.32,0.42,0.16,0.02,0.72,0.38,976.16
0.81,-0.22,0.98,0.07,0.17,0.40,0.18,0.02,0.72,0.38,976.16
0.829,-0.16,0.95,0.09,0.17,0.40,0.18,0.02,0.72,0.38,976.16
0.841,-0.16,0.95,0.09,0.17,0.40,0.18,0.02,0.72,0.38,976.15
0.852,-0.06,0.96,0.08,0.17,0.40,0.18,0.02,0.72,0.38,976.15
0.853,-0.06,0.96,0.08,0.17,0.40,0.18,0.17,0.40,0.64,976.15
0.854,-0.06,0.96,0.08,-1.61,-0.27,0.58,0.17,0.40,0.64,976.15
0.87,-0.05,1.02,0.03,-1.61,-0.27,0.58,0.17,0.40,0.64,976.15
0.888,-0.04,1.07,-0.07,-1.61,-0.27,0.58,0.17,0.40,0.64,976.15
0.893,-0.04,1.07,-0.07,-1.61,-0.27,0.58,0.30,0.15,0.75,976.15
0.894,-0.04,1.07,-0.07,-0.60,0.14,0.09,0.30,0.15,0.75,976.15
0.901,-0.04,1.07,-0.07,-0.60,0.14,0.09,0.30,0.15,0.75,976.14
0.906,0.11,1.03,-0.01,-0.60,0.14,0.09,0.30,0.15,0.75,976.14
0.926,0.32,0.91,0.09,-0.60,0.14,0.09,0.30,0.15,0.75,976.14
0.926,0.32,0.91,0.09,-0.60,0.14,0.09,0.32,-0.10,0.73,976.14
0.927,0.32,0.91,0.09,-0.86,0.14,0.21,0.32,-0.10,0.73,976.14
0.945,0.43,0.92,0.12,-0.86,0.14,0.21,0.32,-0.10,0.73,976.14
0.961,0.43,0.92,0.12,-0.86,0.14,0.21,0.32,-0.10,0.73,976.13
0.966,0.34,0.99,0.08,-0.86,0.14,0.21,0.32,-0.10,0.73,976.13
0.967,0.34,0.99,0.08,-0.86,0.14,0.21,0.38,-0.01,0.42,976.13
0.967,0.34,0.99,0.08,2.25,-0.45,0.86,0.38,-0.01,0.42,976.13
0.988,0.17,1.00,0.06,2.25,-0.45,0.86,0.38,-0.01,0.42,976.13
1.005,0.04,0.97,-0.03,2.25,-0.45,0.86,0.38,-0.01,0.42,976.13
1.007,0.04,0.97,-0.03,2.25,-0.45,0.86,0.61,0.97,-0.08,976.13
1.008,0.04,0.97,-0.03,1.25,-0.14,0.79,0.61,0.97,-0.08,976.13
1.021,0.04,0.97,-0.03,1.25,-0.14,0.79,0.61,0.97,-0.08,976.12
1.025,-0.07,0.98,-0.14,1.25,-0.14,0.79,0.61,0.97,-0.08,976.12
1.046,-0.12,1.03,-0.11,1.25,-0.14,0.79,0.61,0.97,-0.08,976.12
1.049,-0.12,1.03,-0.11,1.25,-0.14,0.79,0.70,1.18,-0.22,976.12
1.05,-0.12,1.03,-0.11,1.29,-0.13,1.01,0.70,1.18,-0.22,976.12
1.069,0.03,0.97,-0.09,1.29,-0.13,1.01,0.70,1.18,-0.22,976.12
1.084,0.03,0.97,-0.09,1.29,-0.13,1.01,0.70,1.18,-0.22,976.12
1.089,0.16,0.98,-0.09,1.29,-0.13,1.01,0.70,1.18,-0.22,976.12
1.091,0.16,0.98,-0.09,1.29,-0.13,1.01,0.59,0.60,-0.07,976.12
1.094,0.16,0.98,-0.09,-1.03,-0.02,-0.22,0.59,0.60,-0.07,976.12
1.117,-0.01,1.05,-0.09,-1.03,-0.02,-0.22,0.59,0.60,-0.07,976.12
1.127,-0.24,1.05,-0.17,-1.03,-0.02,-0.22,0.59,0.60,-0.07,976.12
1.129,-0.24,1.05,-0.17,-1.03,-0.02,-0.22,0.59,0.66,-0.04,976.12
1.132,-0.24,1.05,-0.17,-0.77,0.31,-0.07,0.59,0.66,-0.04,976.12
1.141,-0.24,1.05,-0.17,-0.77,0.31,-0.07,0.59,0.66,-0.04,976.14
1.144,-0.16,0.98,-0.21,-0.77,0.31,-0.07,0.59,0.66,-0.04,976.14
1.163,0.02,0.97,-0.22,-0.77,0.31,-0.07,0.59,0.66,-0.04,976.14
1.164,0.02,0.97,-0.22,-0.77,0.31,-0.07,0.55,0.17,0.10,976.14
1.172,0.02,0.97,-0.22,-0.80,0.34,0.14,0.55,0.17,0.10,976.14
1.204,0.11,1.02,-0.17,-0.80,0.34,0.14,0.55,0.17,0.10,976.14
1.205,0.11,1.02,-0.17,-0.80,0.34,0.14,0.55,0.17,0.10,976.15
1.205,0.20,0.98,-0.20,-0.80,0.34,0.14,0.55,0.17,0.10,976.15
1.205,0.20,0.98,-0.20,-0.80,0.34,0.14,0.42,-0.64,0.26,976.15
1.206,0.20,0.98,-0.20,-0.67,0.02,-0.48,0.42,-0.64,0.26,976.15
1.223,0.21,0.96,-0.26,-0.67,0.02,-0.48,0.42,-0.64,0.26,976.15
1.243,0.05,0.98,-0.19,-0.67,0.02,-0.48,0.42,-0.64,0.26,976.15
1.244,0.05,0.98,-0.19,-0.67,0.02,-0.48,0.36,-0.43,0.09,976.15
1.244,0.05,0.98,-0.19,0.89,-0.14,-0.46,0.36,-0.43,0.09,976.15
1.26,0.05,0.98,-0.19,0.89,-0.14,-0.46,0.36,-0.43,0.09,976.15
1.263,-0.13,1.04,-0.28,0.89,-0.14,-0.46,0.36,-0.43,0.09,976.15
1.283,-0.13,1.04,-0.28,0.87,-0.12,-0.35,0.36,-0.43,0.09,976.15
1.284,-0.07,1.03,-0.27,0.87,-0.12,-0.35,0.36,-0.43,0.09,976.15
1.285,-0.07,1.03,-0.27,0.87,-0.12,-0.35,0.27,0.02,0.01,976.15
1.303,0.10,0.97,-0.24,0.87,-0.12,-0.35,0.27,0.02,0.01,976.15
1.321,0.10,0.97,-0.24,0.87,-0.12,-0.35,0.27,0.02,0.01,976.16
1.324,0.17,0.95,-0.21,0.87,-0.12,-0.35,0.27,0.02,0.01,976.16
1.325,0.17,0.95,-0.21,0.87,-0.12,-0.35,0.13,-0.14,0.21,976.16
1.327,0.17,0.95,-0.21,-1.02,0.27,-0.79,0.13,-0.14,0.21,976.16
1.342,0.07,0.99,-0.20,-1.02,0.27,-0.79,0.13,-0.14,0.21,976.16
1.361,-0.03,1.03,-0.23,-1.02,0.27,-0.79,0.13,-0.14,0.21,976.16
1.363,-0.03,1.03,-0.23,-1.02,0.27,-0.79,0.05,0.08,0.22,976.16
1.363,-0.03,1.03,-0.23,-0.06,0.06,-0.28,0.05,0.08,0.22,976.16
1.399,-0.03,1.03,-0.23,-0.06,0.06,-0.28,0.05,0.08,0.22,976.17
1.402,-0.06,1.03,-0.27,-0.06,0.06,-0.28,0.05,0.08,0.22,976.17
1.406,-0.00,1.00,-0.20,-0.06,0.06,-0.28,0.05,0.08,0.22,976.17
1.408,-0.00,1.00,-0.20,-0.06,0.06,-0.28,-0.04,0.03,0.27,976.17
1.411,-0.00,1.00,-0.20,-0.16,0.06,-0.29,-0.04,0.03,0.27,976.17
1.42,0.14,1.00,-0.18,-0.16,0.06,-0.29,-0.04,0.03,0.27,976.17
1.441,0.14,1.00,-0.18,-0.16,0.06,-0.29,-0.04,0.03,0.27,976.16
1.442,0.51,0.95,-0.13,-0.16,0.06,-0.29,-0.04,0.03,0.27,976.16
1.443,0.51,0.95,-0.13,-0.16,0.06,-0.29,-0.14,-0.28,0.38,976.16
1.444,0.51,0.95,-0.13,-0.72,0.29,-0.35,-0.14,-0.28,0.38,976.16
1.46,0.90,0.83,-0.16,-0.72,0.29,-0.35,-0.14,-0.28,0.38,976.16
1.481,0.75,0.88,-0.22,-0.72,0.29,-0.35,-0.14,-0.28,0.38,976.16
1.484,0.75,0.88,-0.22,-0.72,0.29,-0.35,0.01,-0.48,-0.32,976.16
1.486,0.75,0.88,-0.22,6.17,-0.90,0.14,0.01,-0.48,-0.32,976.16
1.512,0.29,1.00,-0.16,6.17,-0.90,0.14,0.01,-0.48,-0.32,976.16
1.514,0.29,1.00,-0.16,6.17,-0.90,0.14,0.01,-0.48,-0.32,976.15
1.519,0.17,1.00,-0.15,6.17,-0.90,0.14,0.01,-0.48,-0.32,976.15
1.52,0.17,1.00,-0.15,6.17,-0.90,0.14,0.11,-0.36,-1.56,976.15
1.521,0.17,1.00,-0.15,6.67,-0.92,0.19,0.11,-0.36,-1.56,976.15
1.54,0.57,1.02,-0.22,6.67,-0.92,0.19,0.11,-0.36,-1.56,976.15
1.559,0.68,1.13,-0.16,6.67,-0.92,0.19,0.11,-0.36,-1.56,976.15
1.56,0.68,1.13,-0.16,6.67,-0.92,0.19,0.14,-0.57,-2.32,976.15
1.561,0.68,1.13,-0.16,6.67,-0.92,0.19,0.14,-0.57,-2.32,976.16
1.561,0.68,1.13,-0.16,3.77,0.25,0.16,0.14,-0.57,-2.32,976.16
1.579,0.36,1.61,-0.29,3.77,0.25,0.16,0.14,-0.57,-2.32,976.16
1.601,0.29,2.44,-0.32,3.77,0.25,0.16,0.14,-0.57,-2.32,976.16
1.606,0.29,2.44,-0.32,3.77,0.25,0.16,0.27,-1.25,-3.24,976.16
1.608,0.29,2.44,-0.32,5.98,7.32,-0.58,0.27,-1.25,-3.24,976.16
1.63,0.46,2.11,-0.10,5.98,7.32,-0.58,0.27,-1.25,-3.24,976.16
1.634,0.46,2.11,-0.10,5.98,7.32,-0.58,0.27,-1.25,-3.24,976.16
1.638,0.59,1.32,-0.21,5.98,7.32,-0.58,0.27,-1.25,-3.24,976.16
1.638,0.59,1.32,-0.21,5.98,7.32,-0.58,0.57,-1.79,-3.49,976.16
1.639,0.59,1.32,-0.21,7.30,7.56,-0.53,0.57,-1.79,-3.49,976.16
1.658,0.29,1.12,-0.40,7.30,7.56,-0.53,0.57,-1.79,-3.49,976.16
1.678,-0.36,1.04,-0.34,7.30,7.56,-0.53,0.57,-1.79,-3.49,976.16
1.68,-0.36,1.04,-0.34,7.30,7.56,-0.53,0.87,0.34,-3.07,976.16
1.681,-0.36,1.04,-0.34,8.29,5.91,0.05,0.87,0.34,-3.07,976.16
1.682,-0.36,1.04,-0.34,8.29,5.91,0.05,0.87,0.34,-3.07,976.16
1.7,-0.42,0.81,-0.10,8.29,5.91,0.05,0.87,0.34,-3.07,976.16
1.726,-0.07,0.50,0.12,8.29,5.91,0.05,0.87,0.34,-3.07,976.16
1.731,-0.07,0.50,0.12,8.29,5.91,0.05,0.70,0.47,-1.75,976.16
1.736,-0.07,0.50,0.12,1.65,-0.92,1.60,0.70,0.47,-1.75,976.16
1.74,0.22,0.24,0.07,1.65,-0.92,1.60,0.70,0.47,-1.75,976.16
1.743,0.22,0.24,0.07,1.65,-0.92,1.60,0.70,0.47,-1.75,976.16
1.757,0.20,0.23,-0.04,1.65,-0.92,1.60,0.70,0.47,-1.75,976.16
1.76,0.20,0.23,-0.04,1.65,-0.92,1.60,0.19,-0.60,0.60,976.16
1.761,0.20,0.23,-0.04,1.49,-0.99,1.53,0.19,-0.60,0.60,976.16
1.776,-0.07,0.38,-0.04,1.49,-0.99,1.53,0.19,-0.60,0.60,976.16
1.801,-0.11,0.47,0.00,1.49,-0.99,1.53,0.19,-0.60,0.60,976.16
1.804,-0.11,0.47,0.00,1.49,-0.99,1.53,-0.15,0.24,2.19,976.16
1.806,-0.11,0.47,0.00,4.58,-6.09,2.49,-0.15,0.24,2.19,976.16
1.808,-0.11,0.47,0.00,4.58,-6.09,2.49,-0.15,0.24,2.19,976.15
1.829,-0.07,0.50,-0.04,4.58,-6.09,2.49,-0.15,0.24,2.19,976.15
1.837,-0.07,0.50,-0.04,0.89,-4.19,2.09,-0.15,0.24,2.19,976.15
1.839,-0.20,0.57,-0.06,0.89,-4.19,2.09,-0.15,0.24,2.19,976.15
1.839,-0.20,0.57,-0.06,0.89,-4.19,2.09,-0.41,0.66,3.27,976.15
1.855,-0.33,0.68,-0.10,0.89,-4.19,2.09,-0.41,0.66,3.27,976.15
1.859,-0.33,0.68,-0.10,0.89,-4.19,2.09,-0.41,0.66,3.27,976.15
1.876,-0.44,0.77,-0.08,0.89,-4.19,2.09,-0.41,0.66,3.27,976.15
1.878,-0.44,0.77,-0.08,0.89,-4.19,2.09,-0.73,0.95,4.11,976.15
1.879,-0.44,0.77,-0.08,-0.71,-4.40,1.84,-0.73,0.95,4.11,976.15
1.9,-0.57,0.76,-0.27,-0.71,-4.40,1.84,-0.73,0.95,4.11,976.15
1.922,-0.70,0.76,-0.42,-0.71,-4.40,1.84,-0.73,0.95,4.11,976.15
1.924,-0.70,0.76,-0.42,-0.71,-4.40,1.84,-0.89,1.22,4.29,976.15
1.925,-0.70,0.76,-0.42,-5.43,-2.19,0.37,-0.89,1.22,4.29,976.15
1.926,-0.70,0.76,-0.42,-5.43,-2.19,0.37,-0.89,1.22,4.29,976.14
1.937,-0.84,0.76,-0.35,-5.43,-2.19,0.37,-0.89,1.22,4.29,976.14
1.954,-1.09,0.84,-0.38,-5.43,-2.19,0.37,-0.89,1.22,4.29,976.14
1.955,-1.09,0.84,-0.38,-5.43,-2.19,0.37,-0.85,1.41,3.26,976.14
1.955,-1.09,0.84,-0.38,-10.74,-1.53,-2.33,-0.85,1.41,3.26,976.14
1.973,-1.21,0.81,-0.37,-10.74,-1.53,-2.33,-0.85,1.41,3.26,976.14
1.978,-1.21,0.81,-0.37,-10.74,-1.53,-2.33,-0.85,1.41,3.26,976.14
1.995,-0.86,0.65,-0.38,-10.74,-1.53,-2.33,-0.85,1.41,3.26,976.14
1.997,-0.86,0.65,-0.38,-10.74,-1.53,-2.33,-0.71,0.92,1.92,976.14
2.009,-0.86,0.65,-0.38,-11.29,-1.35,-2.63,-0.71,0.92,1.92,976.14
2.013,-0.56,0.72,-0.36,-11.29,-1.35,-2.63,-0.71,0.92,1.92,976.14
2.032,-0.45,0.92,-0.38,-11.29,-1.35,-2.63,-0.71,0.92,1.92,976.14
2.034,-0.45,0.92,-0.38,-11.29,-1.35,-2.63,-0.52,-0.03,0.57,976.14
2.034,-0.45,0.92,-0.38,-11.32,-1.86,-2.62,-0.52,-0.03,0.57,976.14
2.038,-0.45,0.92,-0.38,-11.32,-1.86,-2.62,-0.52,-0.03,0.57,976.14
2.053,-0.45,1.03,-0.47,-11.32,-1.86,-2.62,-0.52,-0.03,0.57,976.14
2.072,-0.47,1.10,-0.48,-11.32,-1.86,-2.62,-0.52,-0.03,0.57,976.14
2.073,-0.47,1.10,-0.48,-11.32,-1.86,-2.62,-0.03,0.25,-0.81,976.14
2.073,-0.47,1.10,-0.48,-6.82,0.89,-3.33,-0.03,0.25,-0.81,976.14
2.093,-0.37,1.12,-0.24,-6.82,0.89,-3.33,-0.03,0.25,-0.81,976.14
2.098,-0.37,1.12,-0.24,-6.82,0.89,-3.33,-0.03,0.25,-0.81,976.15
2.112,-0.18,1.39,-1.27,-6.82,0.89,-3.33,-0.03,0.25,-0.81,976.15
2.113,-0.18,1.39,-1.27,-6.82,0.89,-3.33,0.63,0.50,-1.74,976.15
2.114,-0.18,1.39,-1.27,-6.11,0.77,-3.10,0.63,0.50,-1.74,976.15
2.131,-0.09,2.54,-0.06,-6.11,0.77,-3.10,0.63,0.50,-1.74,976.15
2.152,1.84,1.64,0.82,-6.11,0.77,-3.10,0.63,0.50,-1.74,976.15
2.154,1.84,1.64,0.82,-6.11,0.77,-3.10,1.43,0.48,-2.46,976.15
2.154,1.84,1.64,0.82,-2.79,7.16,-3.29,1.43,0.48,-2.46,976.15
2.158,1.84,1.64,0.82,-2.79,7.16,-3.29,1.43,0.48,-2.46,976.16
2.171,2.14,0.95,-0.34,-2.79,7.16,-3.29,1.43,0.48,-2.46,976.16
2.197,0.53,2.86,0.79,-2.79,7.16,-3.29,1.43,0.48,-2.46,976.16
2.2,0.53,2.86,0.79,-2.79,7.16,-3.29,1.35,-0.08,-1.13,976.16
2.202,0.53,2.86,0.79,14.22,8.42,6.35,1.35,-0.08,-1.13,976.16
2.219,-0.52,2.66,-0.59,14.22,8.42,6.35,1.35,-0.08,-1.13,976.16
2.221,-0.52,2.66,-0.59,14.22,8.42,6.35,1.35,-0.08,-1.13,976.17
2.23,-1.16,0.18,-0.92,14.22,8.42,6.35,1.35,-0.08,-1.13,976.17
2.231,-1.16,0.18,-0.92,14.22,8.42,6.35,1.31,1.87,-2.24,976.17
2.232,-1.16,0.18,-0.92,14.61,8.39,6.71,1.31,1.87,-2.24,976.17
2.251,-1.45,-0.28,-0.96,14.61,8.39,6.71,1.31,1.87,-2.24,976.17
2.271,-0.56,0.65,-0.61,14.61,8.39,6.71,1.31,1.87,-2.24,976.17
2.275,-0.56,0.65,-0.61,14.61,8.39,6.71,0.81,-1.02,-1.29,976.17
2.277,-0.56,0.65,-0.61,-9.59,-0.97,-5.12,0.81,-1.02,-1.29,976.17
2.279,-0.56,0.65,-0.61,-9.59,-0.97,-5.12,0.81,-1.02,-1.29,976.17
2.298,0.17,1.65,-0.33,-9.59,-0.97,-5.12,0.81,-1.02,-1.29,976.17
2.318,0.66,1.88,-0.23,-9.59,-0.97,-5.12,0.81,-1.02,-1.29,976.17
2.32,0.66,1.88,-0.23,-9.59,-0.97,-5.12,-0.49,-0.97,0.73,976.17
2.32,0.66,1.88,-0.23,1.34,4.18,-1.09,-0.49,-0.97,0.73,976.17
2.329,0.10,0.83,-0.22,1.34,4.18,-1.09,-0.49,-0.97,0.73,976.17
2.339,0.10,0.83,-0.22,1.34,4.18,-1.09,-0.49,-0.97,0.73,976.18
2.349,-0.40,0.46,-0.20,1.34,4.18,-1.09,-0.49,-0.97,0.73,976.18
2.349,-0.40,0.46,-0.20,1.34,4.18,-1.09,-0.45,0.14,-0.10,976.18
2.35,-0.40,0.46,-0.20,1.34,4.07,-1.23,-0.45,0.14,-0.10,976.18
2.368,-0.03,0.78,-0.21,1.34,4.07,-1.23,-0.45,0.14,-0.10,976.18
2.394,0.38,1.09,-0.16,1.34,4.07,-1.23,-0.45,0.14,-0.10,976.18
2.397,0.38,1.09,-0.16,1.34,4.07,-1.23,-0.17,-0.29,-0.30,976.18
2.399,0.38,1.09,-0.16,-0.51,-2.77,0.46,-0.17,-0.29,-0.30,976.18
2.401,0.38,1.09,-0.16,-0.51,-2.77,0.46,-0.17,-0.29,-0.30,976.20
2.42,0.53,1.04,-0.07,-0.51,-2.77,0.46,-0.17,-0.29,-0.30,976.20
2.428,0.35,0.82,-0.05,-0.51,-2.77,0.46,-0.17,-0.29,-0.30,976.20
2.429,0.35,0.82,-0.05,-0.51,-2.77,0.46,0.14,-0.76,-0.54,976.20
2.43,0.35,0.82,-0.05,4.92,0.13,1.61,0.14,-0.76,-0.54,976.20
2.448,0.05,0.87,-0.05,4.92,0.13,1.61,0.14,-0.76,-0.54,976.20
2.459,0.05,0.87,-0.05,4.92,0.13,1.61,0.14,-0.76,-0.54,976.21
2.471,0.00,1.10,-0.24,4.92,0.13,1.61,0.14,-0.76,-0.54,976.21
2.474,0.00,1.10,-0.24,4.92,0.13,1.61,0.57,-0.20,-1.63,976.21
2.476,0.00,1.10,-0.24,5.46,0.25,1.79,0.57,-0.20,-1.63,976.21
2.488,0.01,0.97,-0.50,5.46,0.25,1.79,0.57,-0.20,-1.63,976.21
2.526,-0.24,0.76,-0.46,5.46,0.25,1.79,0.57,-0.20,-1.63,976.21
2.53,-0.24,0.76,-0.46,5.46,0.25,1.79,0.87,-0.67,-2.23,976.21
2.533,-0.24,0.76,-0.46,2.37,0.47,0.40,0.87,-0.67,-2.23,976.21
2.535,-0.24,0.76,-0.46,2.37,0.47,0.40,0.87,-0.67,-2.23,976.21
2.537,-0.23,0.91,-0.37,2.37,0.47,0.40,0.87,-0.67,-2.23,976.21
2.558,-0.12,0.83,-0.53,2.37,0.47,0.40,0.87,-0.67,-2.23,976.21
2.56,-0.12,0.83,-0.53,2.37,0.47,0.40,0.88,-1.59,-2.46,976.21
2.561,-0.12,0.83,-0.53,1.27,-0.60,-1.29,0.88,-1.59,-2.46,976.21
2.566,-0.48,1.18,-0.42,1.27,-0.60,-1.29,0.88,-1.59,-2.46,976.21
2.577,-0.48,1.18,-0.42,1.27,-0.60,-1.29,0.88,-1.59,-2.46,976.21
2.591,-0.48,1.18,-0.42,2.31,-0.12,-1.27,0.88,-1.59,-2.46,976.21
2.593,-0.12,1.84,-0.37,2.31,-0.12,-1.27,0.88,-1.59,-2.46,976.21
2.594,-0.12,1.84,-0.37,2.31,-0.12,-1.27,0.73,-1.68,-2.59,976.21
2.626,0.38,2.18,-0.35,2.31,-0.12,-1.27,0.73,-1.68,-2.59,976.21
2.629,0.37,2.27,-0.20,2.31,-0.12,-1.27,0.73,-1.68,-2.59,976.21
2.63,0.37,2.27,-0.20,2.31,-0.12,-1.27,0.31,-2.28,-3.12,976.21
2.631,0.37,2.27,-0.20,4.72,9.17,-0.88,0.31,-2.28,-3.12,976.21
2.637,0.37,2.27,-0.20,4.72,9.17,-0.88,0.31,-2.28,-3.12,976.21
2.645,0.50,1.79,-0.13,4.72,9.17,-0.88,0.31,-2.28,-3.12,976.21
2.666,0.02,0.69,-0.27,4.72,9.17,-0.88,0.31,-2.28,-3.12,976.21
2.668,0.02,0.69,-0.27,4.72,9.17,-0.88,0.18,-0.45,-3.82,976.21
2.67,0.02,0.69,-0.27,9.35,8.55,0.78,0.18,-0.45,-3.82,976.21
2.687,-0.48,-0.16,-0.27,9.35,8.55,0.78,0.18,-0.45,-3.82,976.21
2.697,-0.48,-0.16,-0.27,9.35,8.55,0.78,0.18,-0.45,-3.82,976.21
2.706,-1.39,-1.02,-0.60,9.35,8.55,0.78,0.18,-0.45,-3.82,976.21
2.709,-1.39,-1.02,-0.60,9.51,9.02,1.42,0.18,-0.45,-3.82,976.21
2.712,-1.39,-1.02,-0.60,9.51,9.02,1.42,0.22,2.29,-2.26,976.21
2.739,-1.13,-0.67,-0.35,9.51,9.02,1.42,0.22,2.29,-2.26,976.21
2.747,-1.13,-0.67,-0.35,-3.58,-12.76,-0.52,0.22,2.29,-2.26,976.21
2.75,-0.24,0.39,0.13,-3.58,-12.76,-0.52,0.22,2.29,-2.26,976.21
2.752,-0.24,0.39,0.13,-3.58,-12.76,-0.52,-0.94,1.30,1.00,976.21
2.771,-0.24,0.39,0.13,-3.58,-12.76,-0.52,-0.94,1.30,1.00,976.20
2.777,0.11,0.62,0.09,-3.58,-12.76,-0.52,-0.94,1.30,1.00,976.20
2.784,0.03,0.43,-0.23,-3.58,-12.76,-0.52,-0.94,1.30,1.00,976.20
2.786,0.03,0.43,-0.23,4.91,-2.86,2.84,-0.94,1.30,1.00,976.20
2.788,0.03,0.43,-0.23,4.91,-2.86,2.84,-1.58,-0.47,3.23,976.20
2.813,-0.46,0.26,-0.26,4.91,-2.86,2.84,-1.58,-0.47,3.23,976.20
2.817,-0.46,0.26,-0.26,4.91,-2.86,2.84,-1.58,-0.47,3.23,976.21
2.83,-0.65,0.28,-0.13,4.91,-2.86,2.84,-1.58,-0.47,3.23,976.21
2.832,-0.65,0.28,-0.13,4.91,-2.86,2.84,-1.37,0.61,3.96,976.21
2.833,-0.65,0.28,-0.13,3.53,-3.67,2.48,-1.37,0.61,3.96,976.21
2.842,-0.43,0.45,-0.16,3.53,-3.67,2.48,-1.37,0.61,3.96,976.21
2.862,-0.28,0.77,-0.14,3.53,-3.67,2.48,-1.37,0.61,3.96,976.21
2.864,-0.28,0.77,-0.14,3.53,-3.67,2.48,-1.20,0.62,4.26,976.21
2.865,-0.28,0.77,-0.14,-2.62,-5.71,0.42,-1.20,0.62,4.26,976.21
2.877,-0.28,0.77,-0.14,-2.62,-5.71,0.42,-1.20,0.62,4.26,976.21
2.883,-0.42,0.97,-0.16,-2.62,-5.71,0.42,-1.20,0.62,4.26,976.21
2.909,-0.69,0.80,-0.41,-2.62,-5.71,0.42,-1.20,0.62,4.26,976.21
2.913,-0.69,0.80,-0.41,-2.62,-5.71,0.42,-0.85,0.89,3.97,976.21
2.913,-0.69,0.80,-0.41,-3.59,-0.95,-0.38,-0.85,0.89,3.97,976.21
2.929,-0.66,0.69,-0.47,-3.59,-0.95,-0.38,-0.85,0.89,3.97,976.21
2.937,-0.66,0.69,-0.47,-3.59,-0.95,-0.38,-0.85,0.89,3.97,976.21
2.942,-0.51,0.80,-0.39,-3.59,-0.95,-0.38,-0.85,0.89,3.97,976.21
2.943,-0.51,0.80,-0.39,-3.59,-0.95,-0.38,-0.60,1.19,3.37,976.21
2.944,-0.51,0.80,-0.39,-4.83,-1.02,-0.58,-0.60,1.19,3.37,976.21
2.961,-0.53,0.94,-0.36,-4.83,-1.02,-0.58,-0.60,1.19,3.37,976.21
2.98,-0.60,1.10,-0.27,-4.83,-1.02,-0.58,-0.60,1.19,3.37,976.21
2.981,-0.60,1.10,-0.27,-4.83,-1.02,-0.58,-0.64,0.95,3.10,976.21
2.982,-0.60,1.10,-0.27,-6.92,-1.31,-2.43,-0.64,0.95,3.10,976.21
2.998,-0.60,1.10,-0.27,-6.92,-1.31,-2.43,-0.64,0.95,3.10,976.22
3.018,-0.53,1.26,-0.30,-6.92,-1.31,-2.43,-0.64,0.95,3.10,976.22
3.02,-0.39,1.25,-0.44,-6.92,-1.31,-2.43,-0.64,0.95,3.10,976.22
3.021,-0.39,1.25,-0.44,-6.92,-1.31,-2.43,-0.81,-0.08,2.59,976.22
3.022,-0.39,1.25,-0.44,-7.17,2.67,-2.04,-0.81,-0.08,2.59,976.22
3.042,-0.16,1.14,-0.31,-7.17,2.67,-2.04,-0.81,-0.08,2.59,976.22
3.057,-0.16,1.14,-0.31,-7.17,2.67,-2.04,-0.81,-0.08,2.59,976.22
3.06,0.01,1.09,-0.23,-7.17,2.67,-2.04,-0.81,-0.08,2.59,976.22
3.063,0.01,1.09,-0.23,-7.17,2.67,-2.04,-0.69,-1.08,1.37,976.22
3.065,0.01,1.09,-0.23,-7.48,2.73,-2.15,-0.69,-1.08,1.37,976.22
3.08,-0.00,1.08,-0.11,-7.48,2.73,-2.15,-0.69,-1.08,1.37,976.22
3.108,-0.26,1.05,-0.06,-7.48,2.73,-2.15,-0.69,-1.08,1.37,976.22
3.113,-0.26,1.05,-0.06,-7.48,2.73,-2.15,-0.09,0.03,-0.07,976.22
3.114,-0.26,1.05,-0.06,-2.92,1.69,-0.99,-0.09,0.03,-0.07,976.22
3.117,-0.26,1.05,-0.06,-2.92,1.69,-0.99,-0.09,0.03,-0.07,976.21
3.135,-0.35,1.72,-1.69,-2.92,1.69,-0.99,-0.09,0.03,-0.07,976.21
3.139,-1.07,2.09,0.71,-2.92,1.69,-0.99,-0.09,0.03,-0.07,976.21
3.14,-1.07,2.09,0.71,-2.92,1.69,-0.99,1.15,1.61,-2.26,976.21
3.141,-1.07,2.09,0.71,-7.04,6.54,-1.94,1.15,1.61,-2.26,976.21
3.159,1.53,1.01,0.07,-7.04,6.54,-1.94,1.15,1.61,-2.26,976.21
3.176,1.53,1.01,0.07,-7.04,6.54,-1.94,1.15,1.61,-2.26,976.22
3.18,2.62,0.79,-0.97,-7.04,6.54,-1.94,1.15,1.61,-2.26,976.22
3.182,2.62,0.79,-0.97,-7.04,6.54,-1.94,1.60,-0.79,-1.24,976.22
3.184,2.62,0.79,-0.97,-6.41,6.47,-1.30,1.60,-0.79,-1.24,976.22
3.2,0.56,1.55,0.48,-6.41,6.47,-1.30,1.60,-0.79,-1.24,976.22
3.225,-0.64,2.93,-0.06,-6.41,6.47,-1.30,1.60,-0.79,-1.24,976.22
3.229,-0.64,2.93,-0.06,-6.41,6.47,-1.30,1.22,1.46,-0.66,976.22
3.231,-0.64,2.93,-0.06,14.34,1.60,1.14,1.22,1.46,-0.66,976.22
3.237,-0.64,2.93,-0.06,14.34,1.60,1.14,1.22,1.46,-0.66,976.22
3.24,-0.29,1.97,-0.32,14.34,1.60,1.14,1.22,1.46,-0.66,976.22
3.258,-0.88,-0.24,-0.89,14.34,1.60,1.14,1.22,1.46,-0.66,976.22
3.259,-0.88,-0.24,-0.89,14.34,1.60,1.14,1.09,1.25,-1.81,976.22
3.26,-0.88,-0.24,-0.89,-6.35,5.84,-1.28,1.09,1.25,-1.81,976.22
3.278,-0.39,0.13,-0.90,-6.35,5.84,-1.28,1.09,1.25,-1.81,976.22
3.295,-0.39,0.13,-0.90,-6.35,5.84,-1.28,1.09,1.25,-1.81,976.23
3.298,0.11,1.18,-0.40,-6.35,5.84,-1.28,1.09,1.25,-1.81,976.23
3.299,0.11,1.18,-0.40,-6.35,5.84,-1.28,0.57,-1.00,-0.59,976.23
3.3,0.11,1.18,-0.40,-5.91,5.80,-1.04,0.57,-1.00,-0.59,976.23
3.323,-0.08,1.60,-0.17,-5.91,5.80,-1.04,0.57,-1.00,-0.59,976.23
3.337,0.12,1.16,-0.24,-5.91,5.80,-1.04,0.57,-1.00,-0.59,976.23
3.338,0.12,1.16,-0.24,-5.91,5.80,-1.04,-0.28,-0.15,0.22,976.23
3.339,0.12,1.16,-0.24,-1.21,0.05,-1.76,-0.28,-0.15,0.22,976.23
3.356,0.12,1.16,-0.24,-1.21,0.05,-1.76,-0.28,-0.15,0.22,976.24
3.357,0.14,0.68,-0.35,-1.21,0.05,-1.76,-0.28,-0.15,0.22,976.24
3.377,-0.05,0.75,-0.31,-1.21,0.05,-1.76,-0.28,-0.15,0.22,976.24
3.38,-0.05,0.75,-0.31,-1.21,0.05,-1.76,-0.02,0.03,-0.11,976.24
3.381,-0.05,0.75,-0.31,0.67,-0.99,0.09,-0.02,0.03,-0.11,976.24
3.398,-0.04,0.99,-0.24,0.67,-0.99,0.09,-0.02,0.03,-0.11,976.24
3.425,-0.04,0.99,-0.24,0.67,-0.99,0.09,-0.02,0.03,-0.11,976.24
3.429,0.12,1.01,-0.20,0.67,-0.99,0.09,-0.02,0.03,-0.11,976.24
3.431,0.12,1.01,-0.20,0.67,-0.99,0.09,0.03,-0.17,-0.21,976.24
3.433,0.12,1.01,-0.20,0.75,-0.97,0.11,0.03,-0.17,-0.21,976.24
3.455,0.25,0.89,-0.21,0.75,-0.97,0.11,0.03,-0.17,-0.21,976.24
3.459,0.30,0.86,-0.21,0.75,-0.97,0.11,0.03,-0.17,-0.21,976.24
3.463,0.30,0.86,-0.21,0.75,-0.97,0.11,0.21,-0.41,-0.41,976.24
3.464,0.30,0.86,-0.21,1.35,0.05,1.01,0.21,-0.41,-0.41,976.24
3.475,0.30,0.86,-0.21,1.35,0.05,1.01,0.21,-0.41,-0.41,976.23
3.477,0.20,0.91,-0.30,1.35,0.05,1.01,0.21,-0.41,-0.41,976.23
3.495,-0.06,1.01,-0.29,1.35,0.05,1.01,0.21,-0.41,-0.41,976.23
3.497,-0.06,1.01,-0.29,1.35,0.05,1.01,0.48,-0.19,-0.95,976.23
3.497,-0.06,1.01,-0.29,2.03,-0.24,0.68,0.48,-0.19,-0.95,976.23
3.52,-0.15,1.02,-0.35,2.03,-0.24,0.68,0.48,-0.19,-0.95,976.23
3.534,-0.15,0.86,-0.46,2.03,-0.24,0.68,0.48,-0.19,-0.95,976.23
3.536,-0.15,0.86,-0.46,2.03,-0.24,0.68,0.64,-0.28,-1.25,976.23
3.537,-0.15,0.86,-0.46,2.48,-0.11,0.89,0.64,-0.28,-1.25,976.23
3.538,-0.15,0.86,-0.46,2.48,-0.11,0.89,0.64,-0.28,-1.25,976.23
3.555,-0.45,0.98,-0.54,2.48,-0.11,0.89,0.64,-0.28,-1.25,976.23
3.575,-0.41,1.00,-0.26,2.48,-0.11,0.89,0.64,-0.28,-1.25,976.23
3.579,-0.41,1.00,-0.26,2.48,-0.11,0.89,0.49,-0.95,-1.16,976.23
3.582,-0.41,1.00,-0.26,-0.85,0.31,-0.77,0.49,-0.95,-1.16,976.23
3.594,0.05,0.71,-0.30,-0.85,0.31,-0.77,0.49,-0.95,-1.16,976.23
3.599,0.05,0.71,-0.30,-0.85,0.31,-0.77,0.49,-0.95,-1.16,976.23
3.626,-0.00,0.94,-0.48,-0.85,0.31,-0.77,0.49,-0.95,-1.16,976.23
3.629,-0.00,0.94,-0.48,-0.85,0.31,-0.77,0.34,-2.01,-0.87,976.23
3.631,-0.00,0.94,-0.48,1.02,-0.31,0.16,0.34,-2.01,-0.87,976.23
3.633,-0.28,1.14,-0.66,1.02,-0.31,0.16,0.34,-2.01,-0.87,976.23
3.654,-0.28,1.14,-0.66,1.67,-0.10,0.18,0.34,-2.01,-0.87,976.23
3.657,0.05,1.03,-0.62,1.67,-0.10,0.18,0.34,-2.01,-0.87,976.23
3.659,0.05,1.03,-0.62,1.67,-0.10,0.18,0.49,-1.42,-1.36,976.23
3.661,0.05,1.03,-0.62,1.67,-0.10,0.18,0.49,-1.42,-1.36,976.23
3.676,0.12,1.18,-0.50,1.67,-0.10,0.18,0.49,-1.42,-1.36,976.23
3.693,0.01,1.82,-0.32,1.67,-0.10,0.18,0.49,-1.42,-1.36,976.23
3.694,0.01,1.82,-0.32,1.67,-0.10,0.18,0.25,-2.57,-1.82,976.23
3.696,0.01,1.82,-0.32,3.39,2.41,-2.43,0.25,-2.57,-1.82,976.23
3.717,0.76,2.23,-0.03,3.39,2.41,-2.43,0.25,-2.57,-1.82,976.23
3.719,0.76,2.23,-0.03,3.39,2.41,-2.43,0.25,-2.57,-1.82,976.22
3.739,0.97,2.17,0.27,3.39,2.41,-2.43,0.25,-2.57,-1.82,976.22
3.741,0.97,2.17,0.27,3.39,2.41,-2.43,0.06,-2.99,-2.64,976.22
3.742,0.97,2.17,0.27,10.52,12.07,2.59,0.06,-2.99,-2.64,976.22
3.752,-0.42,1.58,0.06,10.52,12.07,2.59,0.06,-2.99,-2.64,976.22
3.773,-0.67,0.42,-0.53,10.52,12.07,2.59,0.06,-2.99,-2.64,976.22
3.776,-0.67,0.42,-0.53,10.52,12.07,2.59,0.24,-0.25,-4.28,976.22
3.777,-0.67,0.42,-0.53,11.67,12.82,2.58,0.24,-0.25,-4.28,976.22
3.778,-0.67,0.42,-0.53,11.67,12.82,2.58,0.24,-0.25,-4.28,976.22
3.792,-0.35,-0.20,-1.01,11.67,12.82,2.58,0.24,-0.25,-4.28,976.22
3.811,-0.52,-0.41,-0.83,11.67,12.82,2.58,0.24,-0.25,-4.28,976.22
3.814,-0.52,-0.41,-0.83,11.67,12.82,2.58,0.80,2.87,-2.86,976.22
3.816,-0.52,-0.41,-0.83,1.69,-0.79,-1.03,0.80,2.87,-2.86,976.22
3.839,-0.58,-0.05,-0.30,1.69,-0.79,-1.03,0.80,2.87,-2.86,976.22
3.84,-0.58,-0.05,-0.30,1.69,-0.79,-1.03,0.80,2.87,-2.86,976.23
3.868,-0.58,-0.05,-0.30,0.93,-6.95,-0.30,0.80,2.87,-2.86,976.23
3.87,-0.59,0.28,-0.20,0.93,-6.95,-0.30,0.80,2.87,-2.86,976.23
3.871,-0.59,0.28,-0.20,0.93,-6.95,-0.30,-0.22,1.07,-0.97,976.23
3.873,-0.25,0.20,-0.24,0.93,-6.95,-0.30,-0.22,1.07,-0.97,976.23
3.891,0.02,0.15,-0.04,0.93,-6.95,-0.30,-0.22,1.07,-0.97,976.23
3.892,0.02,0.15,-0.04,0.93,-6.95,-0.30,-1.41,0.15,1.29,976.23
3.894,0.02,0.15,-0.04,0.56,-7.36,-0.62,-1.41,0.15,1.29,976.23
3.894,0.02,0.15,-0.04,0.56,-7.36,-0.62,-1.41,0.15,1.29,976.23
3.911,-0.14,0.19,-0.20,0.56,-7.36,-0.62,-1.41,0.15,1.29,976.23
3.935,-0.24,0.28,-0.12,0.56,-7.36,-0.62,-1.41,0.15,1.29,976.23
3.937,-0.24,0.28,-0.12,0.56,-7.36,-0.62,-1.66,0.70,2.77,976.23
3.939,-0.24,0.28,-0.12,3.91,-5.72,1.79,-1.66,0.70,2.77,976.23
3.95,-0.20,0.40,-0.21,3.91,-5.72,1.79,-1.66,0.70,2.77,976.23
3.957,-0.20,0.40,-0.21,3.91,-5.72,1.79,-1.66,0.70,2.77,976.22
3.974,-0.36,0.49,-0.24,3.91,-5.72,1.79,-1.66,0.70,2.77,976.22
3.978,-0.36,0.49,-0.24,3.91,-5.72,1.79,-1.48,1.10,3.35,976.22
3.981,-0.36,0.49,-0.24,1.31,-4.38,1.21,-1.48,1.10,3.35,976.22
3.994,-0.51,0.57,-0.14,1.31,-4.38,1.21,-1.48,1.10,3.35,976.22
4.018,-0.30,0.68,-0.14,1.31,-4.38,1.21,-1.48,1.10,3.35,976.22
4.02,-0.30,0.68,-0.14,1.31,-4.38,1.21,-1.26,1.15,3.72,976.22
4.02,-0.30,0.68,-0.14,-0.08,-4.91,0.92,-1.26,1.15,3.72,976.22
4.021,-0.30,0.68,-0.14,-0.08,-4.91,0.92,-1.26,1.15,3.72,976.23
4.045,-0.08,0.79,-0.13,-0.08,-4.91,0.92,-1.26,1.15,3.72,976.23
4.048,-0.11,0.91,-0.23,-0.08,-4.91,0.92,-1.26,1.15,3.72,976.23
4.049,-0.11,0.91,-0.23,-0.08,-4.91,0.92,-1.19,0.93,4.29,976.23
4.05,-0.11,0.91,-0.23,-1.96,-2.48,1.03,-1.19,0.93,4.29,976.23
4.067,-0.33,1.03,-0.30,-1.96,-2.48,1.03,-1.19,0.93,4.29,976.23
4.073,-0.33,1.03,-0.30,-1.96,-2.48,1.03,-1.19,0.93,4.29,976.23
4.088,-0.45,1.14,-0.41,-1.96,-2.48,1.03,-1.19,0.93,4.29,976.23
4.09,-0.45,1.14,-0.41,-1.96,-2.48,1.03,-1.27,1.21,4.07,976.23
4.091,-0.45,1.14,-0.41,-3.51,0.80,-1.14,-1.27,1.21,4.07,976.23
4.107,-0.44,1.32,-0.48,-3.51,0.80,-1.14,-1.27,1.21,4.07,976.23
4.144,-0.59,1.45,-0.54,-3.51,0.80,-1.14,-1.27,1.21,4.07,976.23
4.147,-0.59,1.45,-0.54,-3.51,0.80,-1.14,-1.22,1.13,3.38,976.23
4.149,-0.59,1.45,-0.54,-4.74,0.87,-1.61,-1.22,1.13,3.38,976.23
4.151,-0.59,1.45,-0.54,-4.74,0.87,-1.61,-1.22,1.13,3.38,976.23
4.153,-0.73,1.41,-0.51,-4.74,0.87,-1.61,-1.22,1.13,3.38,976.23
4.177,-0.50,1.19,-0.54,-4.74,0.87,-1.61,-1.22,1.13,3.38,976.23
4.179,-0.50,1.19,-0.54,-4.74,0.87,-1.61,-1.00,0.27,2.47,976.23
4.18,-0.50,1.19,-0.54,-8.35,4.56,-3.85,-1.00,0.27,2.47,976.23
4.186,-0.33,1.04,-0.47,-8.35,4.56,-3.85,-1.00,0.27,2.47,976.23
4.194,-0.33,1.04,-0.47,-8.35,4.56,-3.85,-1.00,0.27,2.47,976.24
4.212,-0.32,1.07,-0.36,-8.35,4.56,-3.85,-1.00,0.27,2.47,976.24
4.214,-0.32,1.07,-0.36,-8.35,4.56,-3.85,-0.59,-1.05,0.83,976.24
4.215,-0.32,1.07,-0.36,-6.49,1.69,-3.35,-0.59,-1.05,0.83,976.24
4.233,-0.34,1.07,-0.16,-6.49,1.69,-3.35,-0.59,-1.05,0.83,976.24
4.245,-0.29,1.06,0.08,-6.49,1.69,-3.35,-0.59,-1.05,0.83,976.24
4.247,-0.29,1.06,0.08,-6.49,1.69,-3.35,-0.03,-0.90,-0.79,976.24
4.248,-0.29,1.06,0.08,-6.07,1.59,-3.21,-0.03,-0.90,-0.79,976.24
4.254,-0.29,1.06,0.08,-6.07,1.59,-3.21,-0.03,-0.90,-0.79,976.24
4.264,-0.12,1.03,-0.10,-6.07,1.59,-3.21,-0.03,-0.90,-0.79,976.24
4.286,-0.35,2.05,-1.24,-6.07,1.59,-3.21,-0.03,-0.90,-0.79,976.24
4.289,-0.35,2.05,-1.24,-6.07,1.59,-3.21,0.59,-0.37,-1.59,976.24
4.29,-0.35,2.05,-1.24,-4.10,1.03,0.92,0.59,-0.37,-1.59,976.24
4.307,0.64,2.03,0.86,-4.10,1.03,0.92,0.59,-0.37,-1.59,976.24
4.314,0.64,2.03,0.86,-4.10,1.03,0.92,0.59,-0.37,-1.59,976.24
4.338,0.64,2.03,0.86,7.97,6.68,-1.29,0.59,-0.37,-1.59,976.24
4.339,2.52,0.84,-0.61,7.97,6.68,-1.29,0.59,-0.37,-1.59,976.24
4.34,2.52,0.84,-0.61,7.97,6.68,-1.29,1.23,-0.14,-1.46,976.24
4.347,1.01,0.41,-0.84,7.97,6.68,-1.29,1.23,-0.14,-1.46,976.24
4.374,-0.21,1.47,0.17,7.97,6.68,-1.29,1.23,-0.14,-1.46,976.24
4.377,-0.21,1.47,0.17,7.97,6.68,-1.29,1.42,0.71,-0.78,976.24
4.379,-0.21,1.47,0.17,8.06,6.66,-0.78,1.42,0.71,-0.78,976.24
4.38,-0.21,1.47,0.17,8.06,6.66,-0.78,1.42,0.71,-0.78,976.26
4.383,0.61,3.49,0.35,8.06,6.66,-0.78,1.42,0.71,-0.78,976.26
4.404,-0.04,1.37,-0.36,8.06,6.66,-0.78,1.42,0.71,-0.78,976.26
4.405,-0.04,1.37,-0.36,8.06,6.66,-0.78,0.87,2.46,-1.30,976.26
4.406,-0.04,1.37,-0.36,3.61,8.01,1.66,0.87,2.46,-1.30,976.26
4.424,-1.10,-0.37,-1.07,3.61,8.01,1.66,0.87,2.46,-1.30,976.26
4.435,-1.10,-0.37,-1.07,3.61,8.01,1.66,0.87,2.46,-1.30,976.27
4.448,-0.52,0.41,-0.87,3.61,8.01,1.66,0.87,2.46,-1.30,976.27
4.451,-0.52,0.41,-0.87,3.61,8.01,1.66,1.02,0.10,-1.65,976.27
4.453,-0.52,0.41,-0.87,-5.69,-4.77,-4.37,1.02,0.10,-1.65,976.27
4.463,-0.06,1.35,-0.22,-5.69,-4.77,-4.37,1.02,0.10,-1.65,976.27
4.484,-0.06,1.35,-0.22,-5.43,-4.70,-4.32,1.02,0.10,-1.65,976.27
4.486,-0.01,1.43,-0.12,-5.43,-4.70,-4.32,1.02,0.10,-1.65,976.27
4.487,-0.01,1.43,-0.12,-5.43,-4.70,-4.32,-0.09,-1.02,-0.12,976.27
4.494,-0.01,1.43,-0.12,-5.43,-4.70,-4.32,-0.09,-1.02,-0.12,976.28
4.503,0.20,0.92,-0.31,-5.43,-4.70,-4.32,-0.09,-1.02,-0.12,976.28
4.529,0.13,0.69,-0.36,-5.43,-4.70,-4.32,-0.09,-1.02,-0.12,976.28
4.532,0.13,0.69,-0.36,-5.43,-4.70,-4.32,-0.08,-0.14,0.02,976.28
4.533,0.13,0.69,-0.36,0.42,2.72,0.99,-0.08,-0.14,0.02,976.28
4.551,-0.07,0.90,-0.29,0.42,2.72,0.99,-0.08,-0.14,0.02,976.28
4.553,-0.07,0.90,-0.29,0.42,2.72,0.99,-0.08,-0.14,0.02,976.28
4.562,-0.05,1.08,-0.22,0.42,2.72,0.99,-0.08,-0.14,0.02,976.28
4.563,-0.05,1.08,-0.22,0.42,2.72,0.99,0.11,0.30,-0.31,976.28
4.564,-0.05,1.08,-0.22,0.09,-0.63,0.34,0.11,0.30,-0.31,976.28
4.581,0.18,0.99,-0.20,0.09,-0.63,0.34,0.11,0.30,-0.31,976.28
4.602,0.32,0.87,-0.21,0.09,-0.63,0.34,0.11,0.30,-0.31,976.28
4.604,0.32,0.87,-0.21,0.09,-0.63,0.34,0.19,-0.25,-0.36,976.28
4.606,0.32,0.87,-0.21,0.25,-0.59,0.40,0.19,-0.25,-0.36,976.28
4.629,0.32,0.87,-0.21,0.25,-0.59,0.40,0.19,-0.25,-0.36,976.28
4.633,0.22,0.87,-0.32,0.25,-0.59,0.40,0.19,-0.25,-0.36,976.28
4.652,-0.04,0.97,-0.29,0.25,-0.59,0.40,0.19,-0.25,-0.36,976.28
4.654,-0.04,0.97,-0.29,0.25,-0.59,0.40,0.41,-0.21,-0.83,976.28
4.655,-0.04,0.97,-0.29,2.86,-0.33,0.97,0.41,-0.21,-0.83,976.28
4.66,-0.14,1.03,-0.37,2.86,-0.33,0.97,0.41,-0.21,-0.83,976.28
4.675,-0.14,1.03,-0.37,2.86,-0.33,0.97,0.41,-0.21,-0.83,976.27
4.681,-0.08,0.98,-0.43,2.86,-0.33,0.97,0.41,-0.21,-0.83,976.27
4.682,-0.08,0.98,-0.43,2.86,-0.33,0.97,0.55,-0.22,-1.19,976.27
4.683,-0.08,0.98,-0.43,0.10,0.61,-0.04,0.55,-0.22,-1.19,976.27
4.7,-0.08,0.93,-0.47,0.10,0.61,-0.04,0.55,-0.22,-1.19,976.27
4.72,-0.18,0.85,-0.40,0.10,0.61,-0.04,0.55,-0.22,-1.19,976.27
4.723,-0.18,0.85,-0.40,0.10,0.61,-0.04,0.48,-1.16,-1.21,976.27
4.724,-0.18,0.85,-0.40,0.69,0.73,0.08,0.48,-1.16,-1.21,976.27
4.734,-0.18,0.85,-0.40,0.69,0.73,0.08,0.48,-1.16,-1.21,976.26
4.741,-0.13,0.82,-0.27,0.69,0.73,0.08,0.48,-1.16,-1.21,976.26
4.759,-0.10,1.00,-0.44,0.69,0.73,0.08,0.48,-1.16,-1.21,976.26
4.761,-0.10,1.00,-0.44,0.69,0.73,0.08,0.32,-1.70,-1.28,976.26
4.762,-0.10,1.00,-0.44,0.98,-0.37,-0.08,0.32,-1.70,-1.28,976.26
4.779,-0.12,1.01,-0.52,0.98,-0.37,-0.08,0.32,-1.70,-1.28,976.26
4.792,-0.12,1.01,-0.52,0.98,-0.37,-0.08,0.32,-1.70,-1.28,976.25
4.799,-0.17,1.00,-0.54,0.98,-0.37,-0.08,0.32,-1.70,-1.28,976.25
4.8,-0.17,1.00,-0.54,0.98,-0.37,-0.08,0.49,-1.57,-1.67,976.25
4.802,-0.17,1.00,-0.54,1.75,1.21,-1.25,0.49,-1.57,-1.67,976.25
4.823,-0.12,1.16,-0.40,1.75,1.21,-1.25,0.49,-1.57,-1.67,976.25
4.848,-0.04,1.35,-0.24,1.75,1.21,-1.25,0.49,-1.57,-1.67,976.25
4.85,-0.04,1.35,-0.24,1.75,1.21,-1.25,0.35,-2.11,-1.93,976.25
4.851,-0.04,1.35,-0.24,2.65,1.50,-1.40,0.35,-2.11,-1.93,976.25
4.852,-0.04,1.35,-0.24,2.65,1.50,-1.40,0.35,-2.11,-1.93,976.24
4.862,-0.22,1.59,-0.16,2.65,1.50,-1.40,0.35,-2.11,-1.93,976.24
4.877,0.44,2.00,0.08,2.65,1.50,-1.40,0.35,-2.11,-1.93,976.24
4.878,0.44,2.00,0.08,2.65,1.50,-1.40,0.00,-2.32,-2.48,976.24
4.879,0.44,2.00,0.08,3.70,5.40,0.46,0.00,-2.32,-2.48,976.24
4.897,0.57,2.04,0.14,3.70,5.40,0.46,0.00,-2.32,-2.48,976.24
4.925,0.57,2.04,0.14,3.70,5.40,0.46,0.00,-2.32,-2.48,976.24
4.928,-0.50,1.72,-0.13,3.70,5.40,0.46,0.00,-2.32,-2.48,976.24
4.93,-0.50,1.72,-0.13,3.70,5.40,0.46,0.01,-1.80,-3.64,976.24
4.932,-0.50,1.72,-0.13,7.79,11.44,2.96,0.01,-1.80,-3.64,976.24
4.937,-0.39,0.47,-0.33,7.79,11.44,2.96,0.01,-1.80,-3.64,976.24
4.957,-0.75,-0.39,-1.11,7.79,11.44,2.96,0.01,-1.80,-3.64,976.24
4.958,-0.75,-0.39,-1.11,7.79,11.44,2.96,0.80,1.85,-3.25,976.24
4.959,-0.75,-0.39,-1.11,8.32,12.16,3.60,0.80,1.85,-3.25,976.24
4.975,-0.75,-0.39,-1.11,8.32,12.16,3.60,0.80,1.85,-3.25,976.23
4.98,-1.70,-0.43,-1.21,8.32,12.16,3.60,0.80,1.85,-3.25,976.23
4.997,-1.19,0.18,-0.56,8.32,12.16,3.60,0.80,1.85,-3.25,976.23
4.999,-1.19,0.18,-0.56,8.32,12.16,3.60,0.74,2.52,-2.37,976.23
5.001,-1.19,0.18,-0.56,-2.37,-6.98,-4.41,0.74,2.52,-2.37,976.23
5.028,-0.16,0.47,-0.06,-2.37,-6.98,-4.41,0.74,2.52,-2.37,976.23
5.032,-0.16,0.47,-0.06,-2.37,-6.98,-4.41,0.74,2.52,-2.37,976.23
5.036,0.22,0.10,-0.07,-2.37,-6.98,-4.41,0.74,2.52,-2.37,976.23
5.038,0.22,0.10,-0.07,-2.37,-6.98,-4.41,-0.48,-1.27,-0.70,976.23
5.04,0.22,0.10,-0.07,3.53,-3.20,1.49,-0.48,-1.27,-0.70,976.23
5.062,-0.02,-0.16,-0.25,3.53,-3.20,1.49,-0.48,-1.27,-0.70,976.23
5.077,-0.43,0.07,-0.18,3.53,-3.20,1.49,-0.48,-1.27,-0.70,976.23
5.08,-0.43,0.07,-0.18,3.53,-3.20,1.49,-0.90,0.26,1.36,976.23
5.082,-0.43,0.07,-0.18,3.12,-3.65,1.33,-0.90,0.26,1.36,976.23
5.092,-0.43,0.07,-0.18,3.12,-3.65,1.33,-0.90,0.26,1.36,976.24
5.097,-0.47,0.31,-0.21,3.12,-3.65,1.33,-0.90,0.26,1.36,976.24
5.115,-0.22,0.36,-0.13,3.12,-3.65,1.33,-0.90,0.26,1.36,976.24
5.118,-0.22,0.36,-0.13,3.12,-3.65,1.33,-1.20,1.21,2.04,976.24
5.12,-0.22,0.36,-0.13,3.04,-5.95,1.43,-1.20,1.21,2.04,976.24
5.146,-0.10,0.35,-0.12,3.04,-5.95,1.43,-1.20,1.21,2.04,976.24
5.153,-0.10,0.35,-0.12,3.04,-5.95,1.43,-1.20,1.21,2.04,976.25
5.155,-0.20,0.45,-0.18,3.04,-5.95,1.43,-1.20,1.21,2.04,976.25
5.155,-0.20,0.45,-0.18,3.04,-5.95,1.43,-1.21,0.64,3.01,976.25
5.156,-0.20,0.45,-0.18,3.34,-3.67,1.93,-1.21,0.64,3.01,976.25
5.176,-0.30,0.62,-0.21,3.34,-3.67,1.93,-1.21,0.64,3.01,976.25
5.195,-0.30,0.62,-0.21,2.09,-4.36,1.73,-1.21,0.64,3.01,976.25
5.199,-0.31,0.74,-0.21,2.09,-4.36,1.73,-1.21,0.64,3.01,976.25
5.201,-0.31,0.74,-0.21,2.09,-4.36,1.73,-1.06,0.88,3.56,976.25
5.23,-0.31,0.74,-0.21,2.09,-4.36,1.73,-1.06,0.88,3.56,976.25
5.233,-0.25,0.75,-0.20,2.09,-4.36,1.73,-1.06,0.88,3.56,976.25
5.235,-0.25,0.75,-0.20,-0.37,-1.82,0.80,-1.06,0.88,3.56,976.25
5.235,-0.17,0.77,-0.17,-0.37,-1.82,0.80,-1.06,0.88,3.56,976.25
5.236,-0.17,0.77,-0.17,-0.37,-1.82,0.80,-1.10,0.50,3.95,976.25
5.257,-0.14,0.91,-0.13,-0.37,-1.82,0.80,-1.10,0.50,3.95,976.25
5.271,-0.14,0.91,-0.13,-0.37,-1.82,0.80,-1.10,0.50,3.95,976.25
5.276,-0.25,1.01,-0.26,-0.37,-1.82,0.80,-1.10,0.50,3.95,976.25
5.279,-0.25,1.01,-0.26,-0.37,-1.82,0.80,-1.17,0.44,4.33,976.25
5.28,-0.25,1.01,-0.26,-0.97,-0.32,0.58,-1.17,0.44,4.33,976.25
5.294,-0.54,1.11,-0.38,-0.97,-0.32,0.58,-1.17,0.44,4.33,976.25
5.313,-0.74,1.25,-0.42,-0.97,-0.32,0.58,-1.17,0.44,4.33,976.25
5.315,-0.74,1.25,-0.42,-0.97,-0.32,0.58,-1.12,0.80,4.11,976.25
5.316,-0.74,1.25,-0.42,-2.49,-0.43,0.18,-1.12,0.80,4.11,976.25
5.338,-0.74,1.25,-0.42,-2.49,-0.43,0.18,-1.12,0.80,4.11,976.25
5.339,-0.63,1.26,-0.45,-2.49,-0.43,0.18,-1.12,0.80,4.11,976.25
5.352,-0.56,1.36,-0.55,-2.49,-0.43,0.18,-1.12,0.80,4.11,976.25
5.353,-0.56,1.36,-0.55,-2.49,-0.43,0.18,-1.09,0.39,3.70,976.25
5.354,-0.56,1.36,-0.55,-8.11,2.68,-2.46,-1.09,0.39,3.70,976.25
5.371,-0.58,1.29,-0.50,-8.11,2.68,-2.46,-1.09,0.39,3.70,976.25
5.391,-0.58,1.29,-0.50,-8.11,2.68,-2.46,-1.09,0.39,3.70,976.26
5.393,-0.36,1.15,-0.31,-8.11,2.68,-2.46,-1.09,0.39,3.70,976.26
5.394,-0.36,1.15,-0.31,-8.11,2.68,-2.46,-1.05,-0.90,2.57,976.26
5.395,-0.36,1.15,-0.31,-7.50,3.37,-3.05,-1.05,-0.90,2.57,976.26
5.411,-0.20,1.09,-0.17,-7.50,3.37,-3.05,-1.05,-0.90,2.57,976.26
5.441,-0.12,1.02,0.00,-7.50,3.37,-3.05,-1.05,-0.90,2.57,976.26
5.445,-0.12,1.02,0.00,-7.50,3.37,-3.05,-0.69,-1.70,0.78,976.26
5.447,-0.12,1.02,0.00,-7.56,3.36,-3.06,-0.69,-1.70,0.78,976.26
5.451,-0.12,1.02,0.00,-7.56,3.36,-3.06,-0.69,-1.70,0.78,976.27
5.453,-0.07,1.05,0.11,-7.56,3.36,-3.06,-0.69,-1.70,0.78,976.27
5.47,-0.07,1.05,-0.09,-7.56,3.36,-3.06,-0.69,-1.70,0.78,976.27
5.471,-0.07,1.05,-0.09,-7.56,3.36,-3.06,0.03,-0.31,-0.72,976.27
5.472,-0.07,1.05,-0.09,-3.63,1.19,1.25,0.03,-0.31,-0.72,976.27
5.49,-0.36,1.97,-1.44,-3.63,1.19,1.25,0.03,-0.31,-0.72,976.27
5.51,-0.35,1.99,0.39,-3.63,1.19,1.25,0.03,-0.31,-0.72,976.27
5.514,-0.35,1.99,0.39,-3.63,1.19,1.25,1.13,1.76,-2.35,976.27
5.516,-0.35,1.99,0.39,-3.63,1.19,1.25,1.13,1.76,-2.35,976.28
5.518,-0.35,1.99,0.39,-4.07,7.00,-2.00,1.13,1.76,-2.35,976.28
5.542,2.41,1.04,-0.60,-4.07,7.00,-2.00,1.13,1.76,-2.35,976.28
5.549,1.36,0.53,-0.64,-4.07,7.00,-2.00,1.13,1.76,-2.35,976.28
5.552,1.36,0.53,-0.64,-4.07,7.00,-2.00,1.48,-0.79,-1.06,976.28
5.553,1.36,0.53,-0.64,-3.56,6.94,-1.40,1.48,-0.79,-1.06,976.28
5.569,-0.29,1.21,0.15,-3.56,6.94,-1.40,1.48,-0.79,-1.06,976.28
5.57,-0.29,1.21,0.15,-3.56,6.94,-1.40,1.48,-0.79,-1.06,976.26
5.589,-0.71,1.55,-0.22,-3.56,6.94,-1.40,1.48,-0.79,-1.06,976.26
5.591,-0.71,1.55,-0.22,-3.56,6.94,-1.40,0.93,0.96,-1.05,976.26
5.591,-0.71,1.55,-0.22,10.46,-0.29,-0.89,0.93,0.96,-1.05,976.26
5.609,0.04,1.40,-0.52,10.46,-0.29,-0.89,0.93,0.96,-1.05,976.26
5.646,0.40,2.25,-0.02,10.46,-0.29,-0.89,0.93,0.96,-1.05,976.26
5.65,0.40,2.25,-0.02,10.46,-0.29,-0.89,0.55,1.45,-0.99,976.26
5.652,0.40,2.25,-0.02,-1.54,7.52,0.32,0.55,1.45,-0.99,976.26
5.653,0.40,2.25,-0.02,-1.54,7.52,0.32,0.55,1.45,-0.99,976.25
5.654,-0.28,1.37,-0.33,-1.54,7.52,0.32,0.55,1.45,-0.99,976.25
5.691,-0.44,0.38,-0.78,-1.54,7.52,0.32,0.55,1.45,-0.99,976.25
5.694,-0.44,0.38,-0.78,-1.54,7.52,0.32,0.32,-0.16,-0.35,976.25
5.698,-0.44,0.38,-0.78,-1.37,7.42,0.44,0.32,-0.16,-0.35,976.25
5.7,0.02,0.63,-0.53,-1.37,7.42,0.44,0.32,-0.16,-0.35,976.25
5.701,0.02,0.63,-0.53,-1.37,7.42,0.44,0.32,-0.16,-0.35,976.25
5.708,0.12,1.13,-0.24,-1.37,7.42,0.44,0.32,-0.16,-0.35,976.25
5.71,0.12,1.13,-0.24,-1.37,7.42,0.44,-0.10,-0.62,0.07,976.25
5.712,0.12,1.13,-0.24,-2.66,-1.75,-2.38,-0.10,-0.62,0.07,976.25
5.728,-0.02,1.15,-0.17,-2.66,-1.75,-2.38,-0.10,-0.62,0.07,976.25
5.746,0.10,0.80,-0.20,-2.66,-1.75,-2.38,-0.10,-0.62,0.07,976.25
5.747,0.10,0.80,-0.20,-2.66,-1.75,-2.38,-0.34,-0.50,0.32,976.25
5.747,0.10,0.80,-0.20,0.17,0.50,0.82,-0.34,-0.50,0.32,976.25
5.749,0.10,0.80,-0.20,0.17,0.50,0.82,-0.34,-0.50,0.32,976.26
5.766,0.20,0.67,-0.22,0.17,0.50,0.82,-0.34,-0.50,0.32,976.26
5.786,0.25,0.71,-0.27,0.17,0.50,0.82,-0.34,-0.50,0.32,976.26
5.788,0.25,0.71,-0.27,0.17,0.50,0.82,-0.04,-0.34,0.10,976.26
5.788,0.25,0.71,-0.27,0.16,0.49,0.80,-0.04,-0.34,0.10,976.26
5.818,0.30,0.76,-0.29,0.16,0.49,0.80,-0.04,-0.34,0.10,976.26
5.821,0.30,0.76,-0.29,0.16,0.49,0.80,-0.04,-0.34,0.10,976.28
5.842,0.33,0.82,-0.18,0.16,0.49,0.80,-0.04,-0.34,0.10,976.28
5.843,0.33,0.82,-0.18,0.16,0.49,0.80,0.12,-0.11,-0.41,976.28
5.844,0.33,0.82,-0.18,2.12,-2.57,0.28,0.12,-0.11,-0.41,976.28
5.846,0.39,1.08,-0.12,2.12,-2.57,0.28,0.12,-0.11,-0.41,976.28
5.865,0.31,1.38,-0.04,2.12,-2.57,0.28,0.12,-0.11,-0.41,976.28
5.866,0.31,1.38,-0.04,2.12,-2.57,0.28,0.26,0.09,-1.06,976.28
5.867,0.31,1.38,-0.04,3.38,1.15,1.79,0.26,0.09,-1.06,976.28
5.869,0.31,1.38,-0.04,3.38,1.15,1.79,0.26,0.09,-1.06,976.28
5.885,0.16,1.11,-0.21,3.38,1.15,1.79,0.26,0.09,-1.06,976.28
5.906,0.11,0.68,-0.37,3.38,1.15,1.79,0.26,0.09,-1.06,976.28
5.909,0.11,0.68,-0.37,3.38,1.15,1.79,0.63,-0.06,-1.62,976.28
5.91,0.11,0.68,-0.37,3.93,1.23,1.99,0.63,-0.06,-1.62,976.28
5.935,0.02,0.71,-0.27,3.93,1.23,1.99,0.63,-0.06,-1.62,976.28
5.936,0.02,0.71,-0.27,3.93,1.23,1.99,0.63,-0.06,-1.62,976.28
5.958,-0.10,1.11,-0.29,3.93,1.23,1.99,0.63,-0.06,-1.62,976.28
5.959,-0.10,1.11,-0.29,3.93,1.23,1.99,0.86,-0.61,-2.12,976.28
5.96,-0.10,1.11,-0.29,2.33,-1.08,0.58,0.86,-0.61,-2.12,976.28
5.964,-0.17,1.06,-0.46,2.33,-1.08,0.58,0.86,-0.61,-2.12,976.28
5.985,-0.60,0.65,-0.60,2.33,-1.08,0.58,0.86,-0.61,-2.12,976.28
5.988,-0.60,0.65,-0.60,2.33,-1.08,0.58,0.96,-1.33,-2.38,976.28
5.99,-0.60,0.65,-0.60,-0.41,0.27,-0.79,0.96,-1.33,-2.38,976.28
5.994,-0.60,0.65,-0.60,-0.41,0.27,-0.79,0.96,-1.33,-2.38,976.26
6.004,-0.91,0.88,-0.50,-0.41,0.27,-0.79,0.96,-1.33,-2.38,976.26
6.032,-0.34,1.16,-0.61,-0.41,0.27,-0.79,0.96,-1.33,-2.38,976.26
6.034,-0.34,1.16,-0.61,-0.41,0.27,-0.79,0.70,-2.38,-2.08,976.26
6.034,-0.34,1.16,-0.61,0.64,0.60,-0.81,0.70,-2.38,-2.08,976.26
6.063,0.41,1.49,-0.57,0.64,0.60,-0.81,0.70,-2.38,-2.08,976.26
6.065,0.41,1.49,-0.57,0.64,0.60,-0.81,0.70,-2.38,-2.08,976.26
6.066,0.79,1.74,-0.28,0.64,0.60,-0.81,0.70,-2.38,-2.08,976.26
6.067,0.79,1.74,-0.28,0.64,0.60,-0.81,0.23,-3.27,-1.59,976.26
6.069,0.79,1.74,-0.28,1.71,3.13,-2.29,0.23,-3.27,-1.59,976.26
6.083,0.18,1.77,-0.18,1.71,3.13,-2.29,0.23,-3.27,-1.59,976.26
6.104,0.25,2.10,0.15,1.71,3.13,-2.29,0.23,-3.27,-1.59,976.26
6.105,0.25,2.10,0.15,1.71,3.13,-2.29,0.04,-2.61,-3.04,976.26
6.106,0.25,2.10,0.15,9.53,10.36,1.70,0.04,-2.61,-3.04,976.26
6.125,0.25,2.10,0.15,9.53,10.36,1.70,0.04,-2.61,-3.04,976.26
6.127,-0.53,1.44,0.04,9.53,10.36,1.70,0.04,-2.61,-3.04,976.26
6.153,-0.53,1.44,0.04,10.67,11.26,1.65,0.04,-2.61,-3.04,976.26
6.156,-0.71,0.38,-0.20,10.67,11.26,1.65,0.04,-2.61,-3.04,976.26
6.157,-0.71,0.38,-0.20,10.67,11.26,1.65,0.32,-0.53,-4.30,976.26
6.164,-0.51,-0.03,-0.91,10.67,11.26,1.65,0.32,-0.53,-4.30,976.26
6.17,-0.51,-0.03,-0.91,10.67,11.26,1.65,0.32,-0.53,-4.30,976.27
6.181,-1.02,-0.02,-0.91,10.67,11.26,1.65,0.32,-0.53,-4.30,976.27
6.183,-1.02,-0.02,-0.91,10.67,11.26,1.65,0.85,1.78,-2.75,976.27
6.184,-1.02,-0.02,-0.91,1.46,-0.34,-0.16,0.85,1.78,-2.75,976.27
6.201,-0.90,0.12,-0.64,1.46,-0.34,-0.16,0.85,1.78,-2.75,976.27
6.222,-0.39,0.25,-0.37,1.46,-0.34,-0.16,0.85,1.78,-2.75,976.27
6.225,-0.39,0.25,-0.37,1.46,-0.34,-0.16,-0.17,0.97,-1.17,976.27
6.227,-0.39,0.25,-0.37,-0.23,-4.65,-2.64,-0.17,0.97,-1.17,976.27
6.253,-0.39,0.25,-0.37,-0.23,-4.65,-2.64,-0.17,0.97,-1.17,976.27
6.254,-0.32,0.20,-0.12,-0.23,-4.65,-2.64,-0.17,0.97,-1.17,976.27
6.28,-0.27,0.32,-0.23,-0.23,-4.65,-2.64,-0.17,0.97,-1.17,976.27
6.282,-0.27,0.32,-0.23,-0.23,-4.65,-2.64,-1.37,-0.21,1.36,976.27
6.283,-0.27,0.32,-0.23,-0.52,-5.13,-2.98,-1.37,-0.21,1.36,976.27
6.285,-0.28,0.43,-0.06,-0.52,-5.13,-2.98,-1.37,-0.21,1.36,976.27
6.288,-0.28,0.43,-0.06,-0.52,-5.13,-2.98,-1.37,-0.21,1.36,976.27
6.3,-0.33,0.32,-0.20,-0.52,-5.13,-2.98,-1.37,-0.21,1.36,976.27
6.303,-0.33,0.32,-0.20,-0.52,-5.13,-2.98,-1.54,-0.08,2.58,976.27
6.304,-0.33,0.32,-0.20,3.44,-3.98,1.49,-1.54,-0.08,2.58,976.27
6.32,-0.21,0.16,-0.20,3.44,-3.98,1.49,-1.54,-0.08,2.58,976.27
6.345,-0.21,0.16,-0.20,3.25,-5.75,1.03,-1.54,-0.08,2.58,976.27
6.347,-0.07,0.18,0.01,3.25,-5.75,1.03,-1.54,-0.08,2.58,976.27
6.348,-0.07,0.18,0.01,3.25,-5.75,1.03,-1.44,-0.46,3.50,976.27
6.349,-0.07,0.18,0.01,3.25,-5.75,1.03,-1.44,-0.46,3.50,976.28
6.366,0.06,0.42,0.16,3.25,-5.75,1.03,-1.44,-0.46,3.50,976.28
6.379,0.09,0.69,0.07,3.25,-5.75,1.03,-1.44,-0.46,3.50,976.28
6.381,0.09,0.69,0.07,3.25,-5.75,1.03,-1.12,-0.27,4.23,976.28
6.382,0.09,0.69,0.07,1.84,-6.49,0.60,-1.12,-0.27,4.23,976.28
6.399,-0.38,0.73,-0.11,1.84,-6.49,0.60,-1.12,-0.27,4.23,976.28
6.412,-0.38,0.73,-0.11,1.84,-6.49,0.60,-1.12,-0.27,4.23,976.28
6.42,-0.70,0.73,-0.14,1.84,-6.49,0.60,-1.12,-0.27,4.23,976.28
6.422,-0.70,0.73,-0.14,1.84,-6.49,0.60,-0.78,0.86,4.11,976.28
6.424,-0.70,0.73,-0.14,1.51,-3.16,2.05,-0.78,0.86,4.11,976.28
6.439,-0.36,0.74,-0.17,1.51,-3.16,2.05,-0.78,0.86,4.11,976.28
6.459,-0.18,0.77,-0.39,1.51,-3.16,2.05,-0.78,0.86,4.11,976.28
6.462,-0.18,0.77,-0.39,1.51,-3.16,2.05,-0.64,1.05,4.24,976.28
6.463,-0.18,0.77,-0.39,-3.36,-2.08,-0.81,-0.64,1.05,4.24,976.28
6.468,-0.18,0.77,-0.39,-3.36,-2.08,-0.81,-0.64,1.05,4.24,976.29
6.483,-0.46,1.12,-0.48,-3.36,-2.08,-0.81,-0.64,1.05,4.24,976.29
6.499,-0.94,1.33,-0.39,-3.36,-2.08,-0.81,-0.64,1.05,4.24,976.29
6.502,-0.94,1.33,-0.39,-3.36,-2.08,-0.81,-0.34,2.13,3.44,976.29
6.504,-0.94,1.33,-0.39,-4.68,-2.07,-0.92,-0.34,2.13,3.44,976.29
6.519,-0.79,1.18,-0.47,-4.68,-2.07,-0.92,-0.34,2.13,3.44,976.29
6.548,-0.79,1.18,-0.47,-4.68,-2.07,-0.92,-0.34,2.13,3.44,976.30
6.552,-0.55,1.13,-0.60,-4.68,-2.07,-0.92,-0.34,2.13,3.44,976.30
6.553,-0.55,1.13,-0.60,-4.68,-2.07,-0.92,-0.13,2.31,2.60,976.30
6.554,-0.55,1.13,-0.60,-8.71,2.52,-3.12,-0.13,2.31,2.60,976.30
6.557,-0.77,1.26,-0.63,-8.71,2.52,-3.12,-0.13,2.31,2.60,976.30
6.583,-0.60,1.37,-0.53,-8.71,2.52,-3.12,-0.13,2.31,2.60,976.30
6.588,-0.60,1.37,-0.53,-8.71,2.52,-3.12,-0.12,1.12,2.05,976.30
6.591,-0.60,1.37,-0.53,-8.47,3.04,-4.53,-0.12,1.12,2.05,976.30
6.595,-0.60,1.37,-0.53,-8.47,3.04,-4.53,-0.12,1.12,2.05,976.31
6.597,-0.25,1.29,-0.38,-8.47,3.04,-4.53,-0.12,1.12,2.05,976.31
6.627,-0.32,1.16,-0.18,-8.47,3.04,-4.53,-0.12,1.12,2.05,976.31
6.63,-0.32,1.16,-0.18,-8.47,3.04,-4.53,-0.14,-0.54,0.83,976.31
6.632,-0.32,1.16,-0.18,-8.60,3.06,-4.45,-0.14,-0.54,0.83,976.31
6.636,-0.34,1.11,0.04,-8.60,3.06,-4.45,-0.14,-0.54,0.83,976.31
6.647,-0.34,1.11,0.04,-8.60,3.06,-4.45,-0.14,-0.54,0.83,976.30
6.655,-0.18,0.98,0.20,-8.60,3.06,-4.45,-0.14,-0.54,0.83,976.30
6.656,-0.18,0.98,0.20,-8.60,3.06,-4.45,0.13,-1.51,-0.34,976.30
6.657,-0.18,0.98,0.20,-5.03,2.34,-0.22,0.13,-1.51,-0.34,976.30
6.676,0.69,1.75,-0.54,-5.03,2.34,-0.22,0.13,-1.51,-0.34,976.30
6.696,0.24,2.32,-0.17,-5.03,2.34,-0.22,0.13,-1.51,-0.34,976.30
6.699,0.24,2.32,-0.17,-5.03,2.34,-0.22,0.91,-0.55,-0.89,976.30
6.7,0.24,2.32,-0.17,0.76,7.07,0.18,0.91,-0.55,-0.89,976.30
6.711,0.24,2.32,-0.17,0.76,7.07,0.18,0.91,-0.55,-0.89,976.30
6.717,1.50,1.09,0.77,0.76,7.07,0.18,0.91,-0.55,-0.89,976.30
6.737,1.37,0.40,-0.89,0.76,7.07,0.18,0.91,-0.55,-0.89,976.30
6.74,1.37,0.40,-0.89,0.76,7.07,0.18,1.44,0.21,-1.24,976.30
6.743,1.37,0.40,-0.89,1.19,7.00,0.69,1.44,0.21,-1.24,976.30
6.76,0.08,0.89,-0.60,1.19,7.00,0.69,1.44,0.21,-1.24,976.30
6.768,0.08,0.89,-0.60,1.19,7.00,0.69,1.44,0.21,-1.24,976.29
6.774,-0.17,1.51,-0.27,1.19,7.00,0.69,1.44,0.21,-1.24,976.29
6.776,-0.17,1.51,-0.27,1.19,7.00,0.69,1.16,1.50,-1.05,976.29
6.777,-0.17,1.51,-0.27,8.45,-1.59,0.35,1.16,1.50,-1.05,976.29
6.793,0.41,2.16,-0.02,8.45,-1.59,0.35,1.16,1.50,-1.05,976.29
6.813,0.59,2.30,0.36,8.45,-1.59,0.35,1.16,1.50,-1.05,976.29
6.814,0.59,2.30,0.36,8.45,-1.59,0.35,0.45,0.94,-0.94,976.29
6.815,0.59,2.30,0.36,1.73,9.96,3.03,0.45,0.94,-0.94,976.29
6.836,0.59,2.30,0.36,1.73,9.96,3.03,0.45,0.94,-0.94,976.31
6.838,-0.13,0.68,-0.72,1.73,9.96,3.03,0.45,0.94,-0.94,976.31
6.861,-0.37,0.24,-1.09,1.73,9.96,3.03,0.45,0.94,-0.94,976.31
6.864,-0.37,0.24,-1.09,1.73,9.96,3.03,0.66,0.16,-1.09,976.31
6.865,-0.37,0.24,-1.09,2.09,9.84,3.22,0.66,0.16,-1.09,976.31
6.873,-0.39,0.76,-0.46,2.09,9.84,3.22,0.66,0.16,-1.09,976.31
6.888,-0.39,0.76,-0.46,2.09,9.84,3.22,0.66,0.16,-1.09,976.32
6.896,-0.51,1.24,-0.13,2.09,9.84,3.22,0.66,0.16,-1.09,976.32
6.901,-0.51,1.24,-0.13,2.09,9.84,3.22,-0.01,0.06,-0.54,976.32
6.904,-0.51,1.24,-0.13,-3.28,-4.09,-4.34,-0.01,0.06,-0.54,976.32
6.915,-0.09,1.10,-0.20,-3.28,-4.09,-4.34,-0.01,0.06,-0.54,976.32
6.948,0.25,0.76,-0.28,-3.28,-4.09,-4.34,-0.01,0.06,-0.54,976.32
6.951,0.25,0.76,-0.28,-3.28,-4.09,-4.34,-0.34,-0.37,0.31,976.32
6.953,0.25,0.76,-0.28,-1.51,0.48,0.92,-0.34,-0.37,0.31,976.32
6.953,0.25,0.76,-0.28,-1.51,0.48,0.92,-0.34,-0.37,0.31,976.32
6.954,0.23,0.68,-0.27,-1.51,0.48,0.92,-0.34,-0.37,0.31,976.32
6.981,0.21,0.90,-0.22,-1.51,0.48,0.92,-0.34,-0.37,0.31,976.32
6.984,0.21,0.90,-0.22,-1.51,0.48,0.92,-0.07,-0.09,0.18,976.32
6.985,0.21,0.90,-0.22,-1.55,0.47,0.88,-0.07,-0.09,0.18,976.32
6.991,0.38,1.09,-0.17,-1.55,0.47,0.88,-0.07,-0.09,0.18,976.32
7.007,0.38,1.09,-0.17,-1.55,0.47,0.88,-0.07,-0.09,0.18,976.31
7.012,0.48,1.05,-0.15,-1.55,0.47,0.88,-0.07,-0.09,0.18,976.31
7.013,0.48,1.05,-0.15,-1.55,0.47,0.88,0.05,-0.02,-0.38,976.31
7.014,0.48,1.05,-0.15,2.34,-0.96,0.74,0.05,-0.02,-0.38,976.31
7.032,0.50,0.88,-0.17,2.34,-0.96,0.74,0.05,-0.02,-0.38,976.31
7.068,0.53,0.84,-0.22,2.34,-0.96,0.74,0.05,-0.02,-0.38,976.31
7.072,0.53,0.84,-0.22,2.34,-0.96,0.74,0.36,-0.33,-1.12,976.31
7.073,0.53,0.84,-0.22,4.96,-0.53,1.25,0.36,-0.33,-1.12,976.31
7.074,0.53,0.84,-0.22,4.96,-0.53,1.25,0.36,-0.33,-1.12,976.30
7.093,0.19,0.90,-0.21,4.96,-0.53,1.25,0.36,-0.33,-1.12,976.30
7.094,-0.18,0.98,-0.23,4.96,-0.53,1.25,0.36,-0.33,-1.12,976.30
7.095,-0.18,0.98,-0.23,4.96,-0.53,1.25,0.70,-0.42,-1.91,976.30
7.096,-0.18,0.98,-0.23,5.64,-0.40,1.48,0.70,-0.42,-1.91,976.30
7.11,-0.23,1.08,-0.44,5.64,-0.40,1.48,0.70,-0.42,-1.91,976.30
7.128,-0.23,1.08,-0.44,5.64,-0.40,1.48,0.70,-0.42,-1.91,976.31
7.135,-0.35,0.92,-0.60,5.64,-0.40,1.48,0.70,-0.42,-1.91,976.31
7.137,-0.35,0.92,-0.60,5.64,-0.40,1.48,0.95,-1.05,-2.17,976.31
7.139,-0.35,0.92,-0.60,0.96,0.42,0.63,0.95,-1.05,-2.17,976.31
7.158,-0.44,0.81,-0.55,0.96,0.42,0.63,0.95,-1.05,-2.17,976.31
7.186,-0.30,0.81,-0.40,0.96,0.42,0.63,0.95,-1.05,-2.17,976.31
7.188,-0.30,0.81,-0.40,0.96,0.42,0.63,0.75,-2.06,-2.01,976.31
7.19,-0.30,0.81,-0.40,-0.87,-0.68,-1.43,0.75,-2.06,-2.01,976.31
7.192,-0.30,0.81,-0.40,-0.87,-0.68,-1.43,0.75,-2.06,-2.01,976.33
7.194,-0.38,0.93,-0.38,-0.87,-0.68,-1.43,0.75,-2.06,-2.01,976.33
7.209,-0.25,1.28,-0.33,-0.87,-0.68,-1.43,0.75,-2.06,-2.01,976.33
7.211,-0.25,1.28,-0.33,-0.87,-0.68,-1.43,0.35,-1.83,-1.77,976.33
7.212,-0.25,1.28,-0.33,0.01,-0.40,-1.51,0.35,-1.83,-1.77,976.33
7.23,0.12,1.45,-0.65,0.01,-0.40,-1.51,0.35,-1.83,-1.77,976.33
7.247,0.12,1.45,-0.65,0.01,-0.40,-1.51,0.35,-1.83,-1.77,976.34
7.249,0.05,1.95,-0.42,0.01,-0.40,-1.51,0.35,-1.83,-1.77,976.34
7.25,0.05,1.95,-0.42,0.01,-0.40,-1.51,0.10,-1.98,-2.04,976.34
7.25,0.05,1.95,-0.42,2.81,3.55,-1.17,0.10,-1.98,-2.04,976.34
7.268,0.79,2.31,-0.00,2.81,3.55,-1.17,0.10,-1.98,-2.04,976.34
7.288,0.36,2.05,0.11,2.81,3.55,-1.17,0.10,-1.98,-2.04,976.34
7.289,0.36,2.05,0.11,2.81,3.55,-1.17,-0.30,-2.86,-2.93,976.34
7.29,0.36,2.05,0.11,9.52,12.57,1.54,-0.30,-2.86,-2.93,976.34
7.308,0.36,2.05,0.11,9.52,12.57,1.54,-0.30,-2.86,-2.93,976.34
7.311,-0.76,0.97,0.15,9.52,12.57,1.54,-0.30,-2.86,-2.93,976.34
7.33,-0.76,0.97,0.15,10.40,13.21,1.57,-0.30,-2.86,-2.93,976.34
7.334,-0.11,0.02,-0.62,10.40,13.21,1.57,-0.30,-2.86,-2.93,976.34
7.336,-0.11,0.02,-0.62,10.40,13.21,1.57,0.07,0.09,-3.55,976.34
7.366,-0.56,-0.37,-0.96,10.40,13.21,1.57,0.07,0.09,-3.55,976.34
7.37,-0.56,-0.37,-0.96,10.40,13.21,1.57,0.07,0.09,-3.55,976.34
7.371,-1.03,-0.24,-0.56,10.40,13.21,1.57,0.07,0.09,-3.55,976.34
7.373,-1.03,-0.24,-0.56,10.40,13.21,1.57,0.72,2.66,-2.23,976.34
7.374,-1.03,-0.24,-0.56,2.07,-4.63,-1.14,0.72,2.66,-2.23,976.34
7.398,-0.53,0.16,-0.23,2.07,-4.63,-1.14,0.72,2.66,-2.23,976.34
7.406,-0.35,0.19,-0.22,2.07,-4.63,-1.14,0.72,2.66,-2.23,976.34
7.408,-0.35,0.19,-0.22,2.07,-4.63,-1.14,-0.43,0.35,-0.40,976.34
7.409,-0.35,0.19,-0.22,0.55,-6.16,0.22,-0.43,0.35,-0.40,976.34
7.427,-0.35,0.19,-0.22,0.55,-6.16,0.22,-0.43,0.35,-0.40,976.34
7.429,-0.33,0.15,-0.34,0.55,-6.16,0.22,-0.43,0.35,-0.40,976.34
7.453,-0.25,0.32,-0.11,0.55,-6.16,0.22,-0.43,0.35,-0.40,976.34
7.455,-0.25,0.32,-0.11,0.55,-6.16,0.22,-1.26,-0.07,1.91,976.34
7.456,-0.25,0.32,-0.11,0.04,-6.70,-0.13,-1.26,-0.07,1.91,976.34
7.482,-0.25,0.34,-0.14,0.04,-6.70,-0.13,-1.26,-0.07,1.91,976.34
7.485,-0.11,0.29,-0.16,0.04,-6.70,-0.13,-1.26,-0.07,1.91,976.34
7.487,-0.11,0.29,-0.16,0.04,-6.70,-0.13,-1.47,-0.18,3.04,976.34
7.488,-0.11,0.29,-0.16,2.66,-5.22,0.74,-1.47,-0.18,3.04,976.34
7.49,-0.11,0.29,-0.16,2.66,-5.22,0.74,-1.47,-0.18,3.04,976.33
7.506,-0.03,0.29,-0.10,2.66,-5.22,0.74,-1.47,-0.18,3.04,976.33
7.525,-0.09,0.37,-0.08,2.66,-5.22,0.74,-1.47,-0.18,3.04,976.33
7.527,-0.09,0.37,-0.08,2.66,-5.22,0.74,-1.20,-0.13,3.88,976.33
7.528,-0.09,0.37,-0.08,3.31,-5.50,1.12,-1.20,-0.13,3.88,976.33
7.546,-0.09,0.57,0.10,3.31,-5.50,1.12,-1.20,-0.13,3.88,976.33
7.549,-0.09,0.57,0.10,3.31,-5.50,1.12,-1.20,-0.13,3.88,976.33
7.572,0.04,0.76,0.17,3.31,-5.50,1.12,-1.20,-0.13,3.88,976.33
7.574,0.04,0.76,0.17,3.31,-5.50,1.12,-0.87,0.44,4.29,976.33
7.575,0.04,0.76,0.17,1.73,-6.02,0.86,-0.87,0.44,4.29,976.33
7.584,-0.05,0.91,-0.17,1.73,-6.02,0.86,-0.87,0.44,4.29,976.33
7.604,-0.49,1.20,-0.37,1.73,-6.02,0.86,-0.87,0.44,4.29,976.33
7.606,-0.49,1.20,-0.37,1.73,-6.02,0.86,-0.75,0.95,4.61,976.33
7.607,-0.49,1.20,-0.37,0.35,-2.13,2.07,-0.75,0.95,4.61,976.33
7.608,-0.49,1.20,-0.37,0.35,-2.13,2.07,-0.75,0.95,4.61,976.33
7.624,-0.89,1.41,-0.43,0.35,-2.13,2.07,-0.75,0.95,4.61,976.33
7.644,-0.72,1.47,-0.39,0.35,-2.13,2.07,-0.75,0.95,4.61,976.33
7.648,-0.72,1.47,-0.39,0.35,-2.13,2.07,-0.90,1.35,4.65,976.33
7.65,-0.72,1.47,-0.39,-7.87,3.84,-2.48,-0.90,1.35,4.65,976.33
7.67,-0.29,1.58,-0.35,-7.87,3.84,-2.48,-0.90,1.35,4.65,976.33
7.672,-0.29,1.58,-0.35,-7.87,3.84,-2.48,-0.90,1.35,4.65,976.33
7.687,-0.18,1.59,-0.31,-7.87,3.84,-2.48,-0.90,1.35,4.65,976.33
7.689,-0.18,1.59,-0.31,-7.87,3.84,-2.48,-1.03,0.73,4.41,976.33
7.691,-0.18,1.59,-0.31,-9.39,4.05,-2.87,-1.03,0.73,4.41,976.33
7.702,-0.27,1.25,-0.27,-9.39,4.05,-2.87,-1.03,0.73,4.41,976.33
7.722,-0.29,1.12,-0.26,-9.39,4.05,-2.87,-1.03,0.73,4.41,976.33
7.722,-0.29,1.12,-0.26,-9.39,4.05,-2.87,-0.67,-0.21,2.47,976.33
7.723,-0.29,1.12,-0.26,-5.71,5.32,-2.16,-0.67,-0.21,2.47,976.33
7.725,-0.29,1.12,-0.26,-5.71,5.32,-2.16,-0.67,-0.21,2.47,976.33
7.742,-0.39,1.09,-0.21,-5.71,5.32,-2.16,-0.67,-0.21,2.47,976.33
7.762,-0.33,0.98,-0.09,-5.71,5.32,-2.16,-0.67,-0.21,2.47,976.33
7.764,-0.33,0.98,-0.09,-5.71,5.32,-2.16,-0.11,-0.51,0.22,976.33
7.765,-0.33,0.98,-0.09,-6.53,1.32,-0.92,-0.11,-0.51,0.22,976.33
7.781,-0.12,1.00,-0.05,-6.53,1.32,-0.92,-0.11,-0.51,0.22,976.33
7.785,-0.12,1.00,-0.05,-6.53,1.32,-0.92,-0.11,-0.51,0.22,976.34
7.803,-0.03,1.02,-0.02,-6.53,1.32,-0.92,-0.11,-0.51,0.22,976.34
7.806,-0.03,1.02,-0.02,-6.53,1.32,-0.92,0.15,-1.06,-1.13,976.34
7.808,-0.03,1.02,-0.02,-5.98,1.17,-0.72,0.15,-1.06,-1.13,976.34
7.822,-0.09,0.85,0.04,-5.98,1.17,-0.72,0.15,-1.06,-1.13,976.34
7.849,0.42,1.32,-0.51,-5.98,1.17,-0.72,0.15,-1.06,-1.13,976.34
7.854,0.42,1.32,-0.51,-5.98,1.17,-0.72,0.52,-0.50,-1.79,976.34
7.854,0.42,1.32,-0.51,-2.75,-0.04,1.21,0.52,-0.50,-1.79,976.34
7.855,0.42,1.32,-0.51,-2.75,-0.04,1.21,0.52,-0.50,-1.79,976.35
7.871,-0.62,2.38,-1.11,-2.75,-0.04,1.21,0.52,-0.50,-1.79,976.35
7.88,0.81,1.27,1.05,-2.75,-0.04,1.21,0.52,-0.50,-1.79,976.35
7.885,0.81,1.27,1.05,0.86,6.64,-0.10,0.52,-0.50,-1.79,976.35
7.886,0.81,1.27,1.05,0.86,6.64,-0.10,1.37,1.14,-2.53,976.35
7.899,1.90,0.22,-1.74,0.86,6.64,-0.10,1.37,1.14,-2.53,976.35
7.905,1.90,0.22,-1.74,0.86,6.64,-0.10,1.37,1.14,-2.53,976.36
7.92,0.99,0.90,-0.16,0.86,6.64,-0.10,1.37,1.14,-2.53,976.36
7.921,0.99,0.90,-0.16,0.86,6.64,-0.10,1.54,-0.70,-0.79,976.36
7.921,0.99,0.90,-0.16,1.20,6.63,0.50,1.54,-0.70,-0.79,976.36
7.94,-0.32,1.56,0.20,1.20,6.63,0.50,1.54,-0.70,-0.79,976.36
7.96,-0.68,1.44,-0.28,1.20,6.63,0.50,1.54,-0.70,-0.79,976.36
7.961,-0.68,1.44,-0.28,1.20,6.63,0.50,0.89,1.90,-0.95,976.36
7.962,-0.68,1.44,-0.28,7.65,-0.78,-2.87,0.89,1.90,-0.95,976.36
7.981,-0.68,1.44,-0.28,7.65,-0.78,-2.87,0.89,1.90,-0.95,976.37
7.985,0.03,2.63,-0.03,7.65,-0.78,-2.87,0.89,1.90,-0.95,976.37
8.0,0.15,1.71,-0.28,7.65,-0.78,-2.87,0.89,1.90,-0.95,976.37
8.004,0.15,1.71,-0.28,7.65,-0.78,-2.87,0.52,1.39,-0.93,976.37
8.006,0.15,1.71,-0.28,-2.16,9.21,0.90,0.52,1.39,-0.93,976.37
8.018,-0.28,0.10,-0.92,-2.16,9.21,0.90,0.52,1.39,-0.93,976.37
8.025,-0.28,0.10,-0.92,-2.16,9.21,0.90,0.52,1.39,-0.93,976.37
8.042,0.02,0.26,-0.73,-2.16,9.21,0.90,0.52,1.39,-0.93,976.37
8.044,0.02,0.26,-0.73,-2.16,9.21,0.90,0.44,-0.85,-0.53,976.37
8.046,0.02,0.26,-0.73,-1.82,9.10,1.06,0.44,-0.85,-0.53,976.37
8.065,0.30,1.02,-0.18,-1.82,9.10,1.06,0.44,-0.85,-0.53,976.37
8.082,0.08,1.38,-0.06,-1.82,9.10,1.06,0.44,-0.85,-0.53,976.37
8.084,0.08,1.38,-0.06,-1.82,9.10,1.06,-0.28,-0.77,-0.22,976.37
8.085,0.08,1.38,-0.06,0.13,-5.21,-3.06,-0.28,-0.77,-0.22,976.37
8.086,0.08,1.38,-0.06,0.13,-5.21,-3.06,-0.28,-0.77,-0.22,976.39
8.098,-0.10,1.09,-0.22,0.13,-5.21,-3.06,-0.28,-0.77,-0.22,976.39
8.124,-0.16,0.75,-0.31,0.13,-5.21,-3.06,-0.28,-0.77,-0.22,976.39
8.125,-0.16,0.75,-0.31,0.13,-5.21,-3.06,-0.12,0.22,-0.42,976.39
8.125,-0.16,0.75,-0.31,-0.46,0.78,0.95,-0.12,0.22,-0.42,976.39
8.137,-0.07,0.79,-0.32,-0.46,0.78,0.95,-0.12,0.22,-0.42,976.39
8.149,-0.07,0.79,-0.32,-0.46,0.78,0.95,-0.12,0.22,-0.42,976.38
8.157,0.20,0.98,-0.25,-0.46,0.78,0.95,-0.12,0.22,-0.42,976.38
8.157,0.20,0.98,-0.25,-0.46,0.78,0.95,0.10,0.06,-0.38,976.38
8.158,0.20,0.98,-0.25,-0.31,0.78,0.98,0.10,0.06,-0.38,976.38
8.184,0.37,1.00,-0.19,-0.31,0.78,0.98,0.10,0.06,-0.38,976.38
8.197,0.37,0.91,-0.17,-0.31,0.78,0.98,0.10,0.06,-0.38,976.38
8.199,0.37,0.91,-0.17,-0.31,0.78,0.98,0.13,-0.35,-0.59,976.38
8.2,0.37,0.91,-0.17,2.16,-0.64,0.46,0.13,-0.35,-0.59,976.38
8.204,0.37,0.91,-0.17,2.16,-0.64,0.46,0.13,-0.35,-0.59,976.38
8.216,0.25,0.91,-0.16,2.16,-0.64,0.46,0.13,-0.35,-0.59,976.38
8.248,-0.01,0.98,-0.16,2.16,-0.64,0.46,0.13,-0.35,-0.59,976.38
8.252,-0.01,0.98,-0.16,3.02,-0.41,1.48,0.13,-0.35,-0.59,976.38
8.254,-0.01,0.98,-0.16,3.02,-0.41,1.48,0.45,-0.30,-1.33,976.38
8.255,-0.14,1.04,-0.37,3.02,-0.41,1.48,0.45,-0.30,-1.33,976.38
8.281,-0.14,1.04,-0.37,3.02,-0.41,1.48,0.45,-0.30,-1.33,976.38
8.282,-0.31,0.89,-0.46,3.02,-0.41,1.48,0.45,-0.30,-1.33,976.38
8.283,-0.31,0.89,-0.46,3.02,-0.41,1.48,0.74,-0.46,-1.78,976.38
8.283,-0.31,0.89,-0.46,3.69,-0.21,1.70,0.74,-0.46,-1.78,976.38
8.299,-0.49,0.88,-0.49,3.69,-0.21,1.70,0.74,-0.46,-1.78,976.38
8.315,-0.27,0.97,-0.53,3.69,-0.21,1.70,0.74,-0.46,-1.78,976.38
8.319,-0.27,0.97,-0.53,3.69,-0.21,1.70,0.64,-1.03,-1.70,976.38
8.321,-0.27,0.97,-0.53,-0.66,-0.02,-0.81,0.64,-1.03,-1.70,976.38
8.325,-0.27,0.97,-0.53,-0.66,-0.02,-0.81,0.64,-1.03,-1.70,976.37
8.335,0.10,0.90,-0.52,-0.66,-0.02,-0.81,0.64,-1.03,-1.70,976.37
8.368,-0.13,0.85,-0.55,-0.66,-0.02,-0.81,0.64,-1.03,-1.70,976.37
8.373,-0.13,0.85,-0.55,-0.66,-0.02,-0.81,0.31,-1.85,-1.52,976.37
8.374,-0.13,0.85,-0.55,2.22,-0.08,-1.79,0.31,-1.85,-1.52,976.37
8.376,-0.50,1.12,-0.54,2.22,-0.08,-1.79,0.31,-1.85,-1.52,976.37
8.399,-0.50,1.12,-0.54,2.22,-0.08,-1.79,0.31,-1.85,-1.52,976.37
8.4,0.03,1.38,-0.40,2.22,-0.08,-1.79,0.31,-1.85,-1.52,976.37
8.401,0.03,1.38,-0.40,2.22,-0.08,-1.79,0.04,-1.81,-1.93,976.37
8.402,0.03,1.38,-0.40,3.08,0.20,-2.00,0.04,-1.81,-1.93,976.37
8.414,0.10,1.55,-0.36,3.08,0.20,-2.00,0.04,-1.81,-1.93,976.37
8.434,-0.01,1.92,-0.04,3.08,0.20,-2.00,0.04,-1.81,-1.93,976.37
8.436,-0.01,1.92,-0.04,3.08,0.20,-2.00,-0.23,-2.45,-2.26,976.37
8.437,-0.01,1.92,-0.04,3.81,4.87,-1.57,-0.23,-2.45,-2.26,976.37
8.445,-0.01,1.92,-0.04,3.81,4.87,-1.57,-0.23,-2.45,-2.26,976.36
8.467,0.72,2.02,0.27,3.81,4.87,-1.57,-0.23,-2.45,-2.26,976.36
8.474,0.72,2.02,0.27,8.30,9.26,2.79,-0.23,-2.45,-2.26,976.36
8.475,-0.06,1.29,0.01,8.30,9.26,2.79,-0.23,-2.45,-2.26,976.36
8.476,-0.06,1.29,0.01,8.30,9.26,2.79,-0.36,-2.35,-3.27,976.36
8.494,-0.64,0.62,-0.11,8.30,9.26,2.79,-0.36,-2.35,-3.27,976.36
8.504,-0.64,0.62,-0.11,8.30,9.26,2.79,-0.36,-2.35,-3.27,976.37
8.516,-0.64,0.62,-0.11,9.02,10.01,3.20,-0.36,-2.35,-3.27,976.37
8.521,-0.62,0.08,-0.74,9.02,10.01,3.20,-0.36,-2.35,-3.27,976.37
8.525,-0.62,0.08,-0.74,9.02,10.01,3.20,0.19,1.52,-3.44,976.37
8.534,-1.35,-0.05,-1.20,9.02,10.01,3.20,0.19,1.52,-3.44,976.37
8.566,-1.28,0.34,-0.83,9.02,10.01,3.20,0.19,1.52,-3.44,976.37
8.57,-1.28,0.34,-0.83,9.02,10.01,3.20,0.18,2.42,-2.42,976.37
8.571,-1.28,0.34,-0.83,-1.26,-4.22,-3.47,0.18,2.42,-2.42,976.37
8.573,-1.28,0.34,-0.83,-1.26,-4.22,-3.47,0.18,2.42,-2.42,976.37
8.574,0.00,0.51,-0.07,-1.26,-4.22,-3.47,0.18,2.42,-2.42,976.37
8.593,0.62,0.23,-0.07,-1.26,-4.22,-3.47,0.18,2.42,-2.42,976.37
8.594,0.62,0.23,-0.07,-1.26,-4.22,-3.47,-1.01,-0.96,-0.68,976.37
8.595,0.62,0.23,-0.07,5.31,-2.67,-0.52,-1.01,-0.96,-0.68,976.37
8.611,0.03,0.11,-0.24,5.31,-2.67,-0.52,-1.01,-0.96,-0.68,976.37
8.624,0.03,0.11,-0.24,5.31,-2.67,-0.52,-1.01,-0.96,-0.68,976.37
8.634,0.03,0.11,-0.24,4.82,-3.23,-0.92,-1.01,-0.96,-0.68,976.37
8.637,-0.48,0.39,-0.13,4.82,-3.23,-0.92,-1.01,-0.96,-0.68,976.37
8.639,-0.48,0.39,-0.13,4.82,-3.23,-0.92,-1.51,-0.08,1.65,976.37
8.66,-0.33,0.51,-0.15,4.82,-3.23,-0.92,-1.51,-0.08,1.65,976.37
8.671,-0.09,0.45,-0.15,4.82,-3.23,-0.92,-1.51,-0.08,1.65,976.37
8.672,-0.09,0.45,-0.15,4.82,-3.23,-0.92,-1.57,0.82,2.58,976.37
8.673,-0.09,0.45,-0.15,3.55,-4.22,0.33,-1.57,0.82,2.58,976.37
8.705,-0.09,0.45,-0.15,3.55,-4.22,0.33,-1.57,0.82,2.58,976.36
8.709,-0.09,0.53,0.02,3.55,-4.22,0.33,-1.57,0.82,2.58,976.36
8.711,0.01,0.75,0.09,3.55,-4.22,0.33,-1.57,0.82,2.58,976.36
8.714,0.01,0.75,0.09,3.55,-4.22,0.33,-1.22,0.82,3.52,976.36
8.714,0.01,0.75,0.09,4.32,-2.68,1.67,-1.22,0.82,3.52,976.36
8.74,-0.10,0.81,-0.13,4.32,-2.68,1.67,-1.22,0.82,3.52,976.36
8.743,-0.10,0.81,-0.13,4.32,-2.68,1.67,-1.22,0.82,3.52,976.34
8.772,-0.47,0.81,-0.29,4.32,-2.68,1.67,-1.22,0.82,3.52,976.34
8.776,-0.47,0.81,-0.29,4.32,-2.68,1.67,-0.61,2.00,3.49,976.34
8.778,-0.47,0.81,-0.29,2.94,-3.25,1.76,-0.61,2.00,3.49,976.34
8.78,-0.39,0.83,-0.17,2.94,-3.25,1.76,-0.61,2.00,3.49,976.34
8.79,-0.01,0.79,-0.21,2.94,-3.25,1.76,-0.61,2.00,3.49,976.34
8.794,-0.01,0.79,-0.21,2.94,-3.25,1.76,-0.61,1.91,3.65,976.34
8.796,-0.01,0.79,-0.21,-1.09,-1.28,-0.05,-0.61,1.91,3.65,976.34
8.81,-0.01,0.79,-0.21,-1.09,-1.28,-0.05,-0.61,1.91,3.65,976.33
8.814,0.03,0.86,-0.25,-1.09,-1.28,-0.05,-0.61,1.91,3.65,976.33
8.828,-0.20,1.05,-0.41,-1.09,-1.28,-0.05,-0.61,1.91,3.65,976.33
8.829,-0.20,1.05,-0.41,-1.09,-1.28,-0.05,-0.79,1.43,4.02,976.33
8.829,-0.20,1.05,-0.41,-0.13,-0.70,-1.19,-0.79,1.43,4.02,976.33
8.851,-0.38,1.16,-0.26,-0.13,-0.70,-1.19,-0.79,1.43,4.02,976.33
8.878,-0.38,1.16,-0.26,-0.13,-0.70,-1.19,-0.79,1.43,4.02,976.34
8.881,-0.38,1.16,-0.26,-1.57,-0.71,-1.58,-0.79,1.43,4.02,976.34
8.883,-0.07,1.14,-0.16,-1.57,-0.71,-1.58,-0.79,1.43,4.02,976.34
8.884,-0.07,1.14,-0.16,-1.57,-0.71,-1.58,-1.08,1.02,3.72,976.34
8.887,0.19,1.05,-0.18,-1.57,-0.71,-1.58,-1.08,1.02,3.72,976.34
8.908,0.01,1.04,-0.18,-1.57,-0.71,-1.58,-1.08,1.02,3.72,976.34
8.911,0.01,1.04,-0.18,-1.57,-0.71,-1.58,-1.10,-0.03,3.74,976.34
8.913,0.01,1.04,-0.18,-3.21,1.59,-1.06,-1.10,-0.03,3.74,976.34
8.924,0.01,1.04,-0.18,-3.21,1.59,-1.06,-1.10,-0.03,3.74,976.35
8.929,-0.00,1.09,-0.11,-3.21,1.59,-1.06,-1.10,-0.03,3.74,976.35
8.955,0.18,1.21,-0.07,-3.21,1.59,-1.06,-1.10,-0.03,3.74,976.35
8.957,0.18,1.21,-0.07,-3.21,1.59,-1.06,-0.83,-0.62,2.99,976.35
8.957,0.18,1.21,-0.07,-2.79,1.82,-0.50,-0.83,-0.62,2.99,976.35
8.995,0.12,1.26,-0.03,-2.79,1.82,-0.50,-0.83,-0.62,2.99,976.35
8.998,0.12,1.26,-0.03,-2.79,1.82,-0.50,-0.83,-0.62,2.99,976.37
9.0,-0.04,1.22,-0.09,-2.79,1.82,-0.50,-0.83,-0.62,2.99,976.37
9.002,-0.04,1.22,-0.09,-2.79,1.82,-0.50,-0.58,-0.49,2.26,976.37
9.004,-0.04,1.22,-0.09,-3.51,2.10,-0.62,-0.58,-0.49,2.26,976.37
9.006,-0.10,1.21,-0.21,-3.51,2.10,-0.62,-0.58,-0.49,2.26,976.37
9.026,0.00,1.20,-0.23,-3.51,2.10,-0.62,-0.58,-0.49,2.26,976.37
9.029,0.00,1.20,-0.23,-3.51,2.10,-0.62,-0.25,-0.30,1.25,976.37
9.032,0.00,1.20,-0.23,-4.51,3.40,-0.56,-0.25,-0.30,1.25,976.37
9.043,0.00,1.20,-0.23,-4.51,3.40,-0.56,-0.25,-0.30,1.25,976.37
9.067,0.01,1.05,-0.19,-4.51,3.40,-0.56,-0.25,-0.30,1.25,976.37
9.068,0.01,1.05,-0.19,-4.51,2.03,-0.96,-0.25,-0.30,1.25,976.37
9.069,-0.10,1.05,-0.09,-4.51,2.03,-0.96,-0.25,-0.30,1.25,976.37
9.07,-0.10,1.05,-0.09,-4.51,2.03,-0.96,0.31,-0.29,-0.43,976.37
9.085,0.34,1.55,-2.29,-4.51,2.03,-0.96,0.31,-0.29,-0.43,976.37
9.103,0.34,1.55,-2.29,-4.51,2.03,-0.96,0.31,-0.29,-0.43,976.38
9.106,-2.80,2.59,0.39,-4.51,2.03,-0.96,0.31,-0.29,-0.43,976.38
9.108,-2.80,2.59,0.39,-4.51,2.03,-0.96,1.80,0.52,-3.49,976.38
9.11,-2.80,2.59,0.39,-3.23,1.58,-0.39,1.80,0.52,-3.49,976.38
9.126,0.09,1.66,0.95,-3.23,1.58,-0.39,1.80,0.52,-3.49,976.38
9.153,2.61,0.37,-0.98,-3.23,1.58,-0.39,1.80,0.52,-3.49,976.38
9.157,2.61,0.37,-0.98,-3.23,1.58,-0.39,2.03,-0.94,-3.31,976.38
9.159,2.61,0.37,-0.98,-9.25,9.40,-0.97,2.03,-0.94,-3.31,976.38
9.164,2.61,0.37,-0.98,-9.25,9.40,-0.97,2.03,-0.94,-3.31,976.37
9.166,0.63,0.73,-0.56,-9.25,9.40,-0.97,2.03,-0.94,-3.31,976.37
9.184,-0.71,1.75,-0.73,-9.25,9.40,-0.97,2.03,-0.94,-3.31,976.37
9.185,-0.71,1.75,-0.73,-9.25,9.40,-0.97,1.39,1.26,-1.08,976.37
9.186,-0.71,1.75,-0.73,6.91,-0.14,-4.76,1.39,1.26,-1.08,976.37
9.204,-1.03,2.19,-0.17,6.91,-0.14,-4.76,1.39,1.26,-1.08,976.37
9.224,-1.03,2.19,-0.17,6.91,-0.14,-4.76,1.39,1.26,-1.08,976.37
9.227,-0.59,1.17,-0.06,6.91,-0.14,-4.76,1.39,1.26,-1.08,976.37
9.229,-0.59,1.17,-0.06,7.00,-0.14,-4.57,1.39,1.26,-1.08,976.37
9.231,-0.59,1.17,-0.06,7.00,-0.14,-4.57,0.60,2.20,-1.20,976.37
9.245,0.02,0.89,-0.56,7.00,-0.14,-4.57,0.60,2.20,-1.20,976.37
9.264,0.64,1.25,-0.49,7.00,-0.14,-4.57,0.60,2.20,-1.20,976.37
9.265,0.64,1.25,-0.49,7.00,-0.14,-4.57,0.22,-1.04,-0.05,976.37
9.266,0.64,1.25,-0.49,-6.23,4.39,0.42,0.22,-1.04,-0.05,976.37
9.297,0.64,1.25,-0.49,-6.23,4.39,0.42,0.22,-1.04,-0.05,976.38
9.3,0.51,1.10,-0.39,-6.23,4.39,0.42,0.22,-1.04,-0.05,976.38
9.303,0.05,0.73,-0.44,-6.23,4.39,0.42,0.22,-1.04,-0.05,976.38
9.304,0.05,0.73,-0.44,-6.23,4.39,0.42,-0.14,-0.88,0.05,976.38
9.306,0.05,0.73,-0.44,2.96,0.52,-1.32,-0.14,-0.88,0.05,976.38
9.323,0.24,0.66,-0.51,2.96,0.52,-1.32,-0.14,-0.88,0.05,976.38
9.343,0.24,0.66,-0.51,2.96,0.52,-1.32,-0.14,-0.88,0.05,976.39
9.346,0.38,0.80,-0.42,2.96,0.52,-1.32,-0.14,-0.88,0.05,976.39
9.349,0.38,0.80,-0.42,2.96,0.52,-1.32,-0.14,-1.10,-0.31,976.39
9.351,0.38,0.80,-0.42,3.15,0.49,-1.31,-0.14,-1.10,-0.31,976.39
9.375,0.25,0.87,-0.33,3.15,0.49,-1.31,-0.14,-1.10,-0.31,976.39
9.407,0.07,0.84,-0.21,3.15,0.49,-1.31,-0.14,-1.10,-0.31,976.39
9.409,0.07,0.84,-0.21,3.15,0.49,-1.31,-0.09,-1.55,-0.58,976.39
9.411,0.07,0.84,-0.21,2.41,-1.94,-1.10,-0.09,-1.55,-0.58,976.39
9.412,-0.02,0.87,-0.12,2.41,-1.94,-1.10,-0.09,-1.55,-0.58,976.39
9.415,-0.02,0.87,-0.12,2.41,-1.94,-1.10,-0.09,-1.55,-0.58,976.39
9.422,-0.09,1.01,-0.09,2.41,-1.94,-1.10,-0.09,-1.55,-0.58,976.39
9.426,-0.09,1.01,-0.09,2.41,-1.94,-1.10,0.03,-1.24,-0.90,976.39
9.429,-0.09,1.01,-0.09,-0.03,-0.67,1.61,0.03,-1.24,-0.90,976.39
9.441,-0.18,1.00,-0.14,-0.03,-0.67,1.61,0.03,-1.24,-0.90,976.39
9.465,-0.12,0.89,-0.22,-0.03,-0.67,1.61,0.03,-1.24,-0.90,976.39
9.468,-0.12,0.89,-0.22,-0.03,-0.67,1.61,0.11,-0.78,-0.95,976.39
9.469,-0.12,0.89,-0.22,0.42,-0.63,1.61,0.11,-0.78,-0.95,976.39
9.471,-0.12,0.89,-0.22,0.42,-0.63,1.61,0.11,-0.78,-0.95,976.39
9.486,-0.01,0.92,-0.27,0.42,-0.63,1.61,0.11,-0.78,-0.95,976.39
9.501,0.01,0.98,-0.31,0.42,-0.63,1.61,0.11,-0.78,-0.95,976.39
9.504,0.01,0.98,-0.31,0.42,-0.63,1.61,0.13,-0.52,-0.95,976.39
9.505,0.01,0.98,-0.31,-0.09,-0.27,0.99,0.13,-0.52,-0.95,976.39
9.52,-0.00,1.04,-0.33,-0.09,-0.27,0.99,0.13,-0.52,-0.95,976.39
9.523,-0.00,1.04,-0.33,-0.09,-0.27,0.99,0.13,-0.52,-0.95,976.40
9.54,0.02,1.06,-0.23,-0.09,-0.27,0.99,0.13,-0.52,-0.95,976.40
9.543,0.02,1.06,-0.23,-0.09,-0.27,0.99,0.09,-0.50,-1.13,976.40
9.545,0.02,1.06,-0.23,1.48,0.67,0.17,0.09,-0.50,-1.13,976.40
9.57,0.15,1.01,-0.17,1.48,0.67,0.17,0.09,-0.50,-1.13,976.40
9.58,0.25,1.07,-0.16,1.48,0.67,0.17,0.09,-0.50,-1.13,976.40
9.58,0.25,1.07,-0.16,1.48,0.67,0.17,0.13,-0.75,-1.44,976.40
9.581,0.25,1.07,-0.16,2.07,0.77,0.17,0.13,-0.75,-1.44,976.40
9.582,0.25,1.07,-0.16,2.07,0.77,0.17,0.13,-0.75,-1.44,976.40
9.599,0.26,1.22,-0.19,2.07,0.77,0.17,0.13,-0.75,-1.44,976.40
9.619,0.21,1.38,-0.20,2.07,0.77,0.17,0.13,-0.75,-1.44,976.40
9.621,0.21,1.38,-0.20,2.07,0.77,0.17,0.19,-0.67,-2.11,976.40
9.623,0.21,1.38,-0.20,4.90,1.64,1.30,0.19,-0.67,-2.11,976.40
9.64,0.08,1.50,-0.16,4.90,1.64,1.30,0.19,-0.67,-2.11,976.40
9.644,0.08,1.50,-0.16,4.90,1.64,1.30,0.19,-0.67,-2.11,976.40
9.67,0.01,1.76,-0.04,4.90,1.64,1.30,0.19,-0.67,-2.11,976.40
9.673,0.01,1.76,-0.04,4.90,1.64,1.30,0.14,-1.63,-2.60,976.40
9.674,0.01,1.76,-0.04,4.75,6.31,1.54,0.14,-1.63,-2.60,976.40
9.677,1.09,1.98,-0.01,4.75,6.31,1.54,0.14,-1.63,-2.60,976.40
9.697,2.01,1.64,-0.52,4.75,6.31,1.54,0.14,-1.63,-2.60,976.40
9.699,2.01,1.64,-0.52,4.75,6.31,1.54,0.08,-3.16,-1.96,976.40
9.699,2.01,1.64,-0.52,5.64,6.54,1.01,0.08,-3.16,-1.96,976.40
9.701,2.01,1.64,-0.52,5.64,6.54,1.01,0.08,-3.16,-1.96,976.39
9.719,0.59,1.87,-0.93,5.64,6.54,1.01,0.08,-3.16,-1.96,976.39
9.738,-1.07,1.88,-0.72,5.64,6.54,1.01,0.08,-3.16,-1.96,976.39
9.741,-1.07,1.88,-0.72,5.64,6.54,1.01,0.54,-0.07,-3.39,976.39
9.742,-1.07,1.88,-0.72,17.57,9.86,-2.27,0.54,-0.07,-3.39,976.39
9.767,-1.07,1.20,-0.85,17.57,9.86,-2.27,0.54,-0.07,-3.39,976.39
9.77,-1.07,1.20,-0.85,17.57,9.86,-2.27,0.54,-0.07,-3.39,976.40
9.777,-0.74,0.63,-0.46,17.57,9.86,-2.27,0.54,-0.07,-3.39,976.40
9.778,-0.74,0.63,-0.46,17.57,9.86,-2.27,0.77,1.83,-3.73,976.40
9.779,-0.74,0.63,-0.46,-2.96,4.98,-3.38,0.77,1.83,-3.73,976.40
9.806,-0.70,0.34,-0.50,-2.96,4.98,-3.38,0.77,1.83,-3.73,976.40
9.819,-0.65,0.17,-0.35,-2.96,4.98,-3.38,0.77,1.83,-3.73,976.40
9.823,-0.65,0.17,-0.35,-2.96,4.98,-3.38,0.35,-0.08,-0.75,976.40
9.824,-0.65,0.17,-0.35,-2.70,5.13,-3.25,0.35,-0.08,-0.75,976.40
9.824,-0.65,0.17,-0.35,-2.70,5.13,-3.25,0.35,-0.08,-0.75,976.40
9.836,-0.38,-0.04,-0.06,-2.70,5.13,-3.25,0.35,-0.08,-0.75,976.40
9.867,0.03,-0.11,0.05,-2.70,5.13,-3.25,0.35,-0.08,-0.75,976.40
9.87,0.03,-0.11,0.05,-2.70,5.13,-3.25,-0.28,-2.39,1.47,976.40
9.872,0.03,-0.11,0.05,0.90,-5.78,-0.30,-0.28,-2.39,1.47,976.40
9.876,0.28,0.05,-0.06,0.90,-5.78,-0.30,-0.28,-2.39,1.47,976.40
9.881,0.28,0.05,-0.06,0.90,-5.78,-0.30,-0.28,-2.39,1.47,976.39
9.895,-0.12,0.31,-0.07,0.90,-5.78,-0.30,-0.28,-2.39,1.47,976.39
9.897,-0.12,0.31,-0.07,0.90,-5.78,-0.30,-0.42,-1.19,3.05,976.39
9.898,-0.12,0.31,-0.07,6.24,-7.19,1.95,-0.42,-1.19,3.05,976.39
9.916,-0.47,0.50,-0.00,6.24,-7.19,1.95,-0.42,-1.19,3.05,976.39
9.936,-0.40,0.63,0.03,6.24,-7.19,1.95,-0.42,-1.19,3.05,976.39
9.939,-0.40,0.63,0.03,6.24,-7.19,1.95,-0.28,0.51,3.61,976.39
9.941,-0.40,0.63,0.03,4.91,-7.80,1.92,-0.28,0.51,3.61,976.39
9.944,-0.40,0.63,0.03,4.91,-7.80,1.92,-0.28,0.51,3.61,976.37
9.957,-0.32,0.72,0.03,4.91,-7.80,1.92,-0.28,0.51,3.61,976.37
9.989,-0.41,0.85,-0.03,4.91,-7.80,1.92,-0.28,0.51,3.61,976.37
9.992,-0.41,0.85,-0.03,4.91,-7.80,1.92,-0.21,0.58,4.47,976.37
9.993,-0.41,0.85,-0.03,-1.19,-3.15,2.32,-0.21,0.58,4.47,976.37
9.994,-0.58,1.02,-0.01,-1.19,-3.15,2.32,-0.21,0.58,4.47,976.37
10.03,-0.58,1.02,-0.01,-1.19,-3.15,2.32,-0.21,0.58,4.47,976.35
10.035,-0.73,1.10,-0.14,-1.19,-3.15,2.32,-0.21,0.58,4.47,976.35
10.037,-0.73,1.10,-0.14,-1.19,-3.15,2.32,-0.34,1.35,4.69,976.35
10.04,-0.73,1.10,-0.14,-4.69,0.16,1.49,-0.34,1.35,4.69,976.35
10.042,-0.81,0.96,-0.25,-4.69,0.16,1.49,-0.34,1.35,4.69,976.35
10.054,-0.81,0.96,-0.25,-6.39,0.10,1.20,-0.34,1.35,4.69,976.35
10.055,-0.59,0.92,-0.36,-6.39,0.10,1.20,-0.34,1.35,4.69,976.35
10.056,-0.59,0.92,-0.36,-6.39,0.10,1.20,-0.70,1.43,4.47,976.35
10.06,-0.59,0.92,-0.36,-6.39,0.10,1.20,-0.70,1.43,4.47,976.35
10.078,-0.42,1.17,-0.32,-6.39,0.10,1.20,-0.70,1.43,4.47,976.35
10.093,-0.65,1.29,-0.28,-6.39,0.10,1.20,-0.70,1.43,4.47,976.35
10.095,-0.65,1.29,-0.28,-8.14,0.52,-1.56,-0.70,1.43,4.47,976.35
10.096,-0.65,1.29,-0.28,-8.14,0.52,-1.56,-0.68,1.42,3.88,976.35
10.115,-0.88,1.08,-0.27,-8.14,0.52,-1.56,-0.68,1.42,3.88,976.35
10.12,-0.88,1.08,-0.27,-8.14,0.52,-1.56,-0.68,1.42,3.88,976.37
10.134,-0.92,0.87,-0.24,-8.14,0.52,-1.56,-0.68,1.42,3.88,976.37
10.136,-0.92,0.87,-0.24,-8.14,0.52,-1.56,-0.48,1.96,2.49,976.37
10.137,-0.92,0.87,-0.24,-11.02,1.36,-1.49,-0.48,1.96,2.49,976.37
10.154,-0.60,0.88,-0.24,-11.02,1.36,-1.49,-0.48,1.96,2.49,976.37
10.195,-0.30,1.00,-0.29,-11.02,1.36,-1.49,-0.48,1.96,2.49,976.37
10.198,-0.30,1.00,-0.29,-11.02,1.36,-1.49,-0.53,0.52,1.76,976.37
10.199,-0.30,1.00,-0.29,-11.48,1.55,-1.72,-0.53,0.52,1.76,976.37
10.201,-0.30,1.00,-0.29,-11.48,1.55,-1.72,-0.53,0.52,1.76,976.40
10.202,-0.23,0.92,-0.22,-11.48,1.55,-1.72,-0.53,0.52,1.76,976.40
10.212,-0.17,0.86,-0.21,-11.48,1.55,-1.72,-0.53,0.52,1.76,976.40
10.213,-0.17,0.86,-0.21,-11.48,1.55,-1.72,-0.42,-0.21,1.02,976.40
10.214,-0.17,0.86,-0.21,-7.41,0.21,-1.65,-0.42,-0.21,1.02,976.40
10.231,-0.14,0.88,-0.21,-7.41,0.21,-1.65,-0.42,-0.21,1.02,976.40
10.256,-0.14,0.88,-0.21,-7.41,0.21,-1.65,-0.42,-0.21,1.02,976.40
10.258,-0.16,1.03,-0.17,-7.41,0.21,-1.65,-0.42,-0.21,1.02,976.40
10.258,-0.16,1.03,-0.17,-7.41,0.21,-1.65,-0.14,0.35,0.19,976.40
10.259,-0.16,1.03,-0.17,-5.26,0.19,-1.22,-0.14,0.35,0.19,976.40
10.274,-0.16,1.07,-0.17,-5.26,0.19,-1.22,-0.14,0.35,0.19,976.40
10.29,-0.07,0.99,-0.23,-5.26,0.19,-1.22,-0.14,0.35,0.19,976.40
10.292,-0.07,0.99,-0.23,-5.26,0.19,-1.22,0.11,0.45,-0.42,976.40
10.294,-0.07,0.99,-0.23,-5.04,0.13,-1.22,0.11,0.45,-0.42,976.40
10.301,-0.07,0.99,-0.23,-5.04,0.13,-1.22,0.11,0.45,-0.42,976.39
10.311,0.00,1.04,-0.21,-5.04,0.13,-1.22,0.11,0.45,-0.42,976.39
10.33,-0.06,1.16,-0.23,-5.04,0.13,-1.22,0.11,0.45,-0.42,976.39
10.332,-0.06,1.16,-0.23,-5.04,0.13,-1.22,0.33,0.11,-0.94,976.39
10.333,-0.06,1.16,-0.23,-3.81,1.06,-1.16,0.33,0.11,-0.94,976.39
10.37,-0.16,1.18,-0.21,-3.81,1.06,-1.16,0.33,0.11,-0.94,976.39
10.373,-0.16,1.18,-0.21,-3.81,1.06,-1.16,0.33,0.11,-0.94,976.40
10.374,-0.15,1.04,-0.17,-3.81,1.06,-1.16,0.33,0.11,-0.94,976.40
10.375,-0.15,1.04,-0.17,-3.81,1.06,-1.16,0.49,-0.25,-1.54,976.40
10.375,-0.15,1.04,-0.17,-3.68,1.79,-0.96,0.49,-0.25,-1.54,976.40
10.396,0.22,1.11,-0.17,-3.68,1.79,-0.96,0.49,-0.25,-1.54,976.40
10.409,0.61,1.42,-0.41,-3.68,1.79,-0.96,0.49,-0.25,-1.54,976.40
10.41,0.61,1.42,-0.41,-3.68,1.79,-0.96,0.73,-0.87,-1.68,976.40
10.411,0.61,1.42,-0.41,-2.97,1.65,-0.60,0.73,-0.87,-1.68,976.40
10.42,0.61,1.42,-0.41,-2.97,1.65,-0.60,0.73,-0.87,-1.68,976.39
10.429,0.55,1.58,0.49,-2.97,1.65,-0.60,0.73,-0.87,-1.68,976.39
10.468,1.49,1.21,0.07,-2.97,1.65,-0.60,0.73,-0.87,-1.68,976.39
10.472,1.49,1.21,0.07,3.47,3.96,1.57,0.73,-0.87,-1.68,976.39
10.473,1.49,1.21,0.07,3.47,3.96,1.57,1.27,-0.86,-1.84,976.39
10.473,1.15,0.83,-1.05,3.47,3.96,1.57,1.27,-0.86,-1.84,976.39
10.48,1.15,0.83,-1.05,3.47,3.96,1.57,1.27,-0.86,-1.84,976.41
10.503,0.15,1.01,-0.34,3.47,3.96,1.57,1.27,-0.86,-1.84,976.41
10.505,0.15,1.01,-0.34,3.47,3.96,1.57,1.65,0.89,-1.26,976.41
10.506,0.15,1.01,-0.34,8.30,0.61,-1.82,1.65,0.89,-1.26,976.41
10.509,-0.37,1.08,-0.43,8.30,0.61,-1.82,1.65,0.89,-1.26,976.41
10.528,-0.37,1.08,-0.43,8.57,0.67,-1.43,1.65,0.89,-1.26,976.41
10.531,0.02,1.54,-0.09,8.57,0.67,-1.43,1.65,0.89,-1.26,976.41
10.533,0.02,1.54,-0.09,8.57,0.67,-1.43,1.08,1.30,-1.52,976.41
10.541,0.02,1.54,-0.09,8.57,0.67,-1.43,1.08,1.30,-1.52,976.42
10.547,0.07,2.60,0.06,8.57,0.67,-1.43,1.08,1.30,-1.52,976.42
10.568,0.07,2.60,0.06,-1.19,7.63,1.56,1.08,1.30,-1.52,976.42
10.57,-0.30,1.45,-0.63,-1.19,7.63,1.56,1.08,1.30,-1.52,976.42
10.57,-0.30,1.45,-0.63,-1.19,7.63,1.56,0.55,0.73,-0.87,976.42
10.59,-0.28,0.33,-0.83,-1.19,7.63,1.56,0.55,0.73,-0.87,976.42
10.6,-0.28,0.33,-0.83,-1.19,7.63,1.56,0.55,0.73,-0.87,976.43
10.606,-0.04,0.48,-0.62,-1.19,7.63,1.56,0.55,0.73,-0.87,976.43
10.607,-0.04,0.48,-0.62,-1.19,7.63,1.56,0.43,-0.54,-0.77,976.43
10.608,-0.04,0.48,-0.62,-1.92,-1.91,-3.52,0.43,-0.54,-0.77,976.43
10.626,-0.17,1.01,-0.26,-1.92,-1.91,-3.52,0.43,-0.54,-0.77,976.43
10.646,-0.18,1.15,-0.20,-1.92,-1.91,-3.52,0.43,-0.54,-0.77,976.43
10.649,-0.18,1.15,-0.20,-1.92,-1.91,-3.52,-0.25,-0.82,-0.20,976.43
10.651,-0.18,1.15,-0.20,-1.72,-1.91,-3.56,-0.25,-0.82,-0.20,976.43
10.676,-0.18,1.15,-0.20,-1.72,-1.91,-3.56,-0.25,-0.82,-0.20,976.44
10.679,0.13,1.01,-0.25,-1.72,-1.91,-3.56,-0.25,-0.82,-0.20,976.44
10.71,0.08,0.87,-0.28,-1.72,-1.91,-3.56,-0.25,-0.82,-0.20,976.44
10.712,0.08,0.87,-0.28,-1.72,-1.91,-3.56,-0.24,-0.34,-0.05,976.44
10.713,0.08,0.87,-0.28,-0.33,0.99,0.80,-0.24,-0.34,-0.05,976.44
10.715,-0.18,0.81,-0.24,-0.33,0.99,0.80,-0.24,-0.34,-0.05,976.44
10.721,-0.18,0.81,-0.24,-0.33,0.99,0.80,-0.24,-0.34,-0.05,976.43
10.724,-0.10,0.85,-0.26,-0.33,0.99,0.80,-0.24,-0.34,-0.05,976.43
10.726,-0.10,0.85,-0.26,-0.33,0.99,0.80,-0.04,0.01,-0.19,976.43
10.727,-0.10,0.85,-0.26,-0.20,-1.08,0.59,-0.04,0.01,-0.19,976.43
10.745,0.15,0.84,-0.33,-0.20,-1.08,0.59,-0.04,0.01,-0.19,976.43
10.771,0.17,0.77,-0.36,-0.20,-1.08,0.59,-0.04,0.01,-0.19,976.43
10.774,0.17,0.77,-0.36,-0.20,-1.08,0.59,0.02,-0.28,-0.30,976.43
10.775,0.17,0.77,-0.36,-0.05,-1.06,0.58,0.02,-0.28,-0.30,976.43
10.779,0.17,0.77,-0.36,-0.05,-1.06,0.58,0.02,-0.28,-0.30,976.42
10.799,0.09,0.79,-0.39,-0.05,-1.06,0.58,0.02,-0.28,-0.30,976.42
10.803,0.04,0.88,-0.27,-0.05,-1.06,0.58,0.02,-0.28,-0.30,976.42
10.804,0.04,0.88,-0.27,-0.05,-1.06,0.58,0.12,0.06,-0.56,976.42
10.804,0.04,0.88,-0.27,2.12,-1.43,-0.35,0.12,0.06,-0.56,976.42
10.824,0.07,1.01,-0.24,2.12,-1.43,-0.35,0.12,0.06,-0.56,976.42
10.839,0.07,1.01,-0.24,2.12,-1.43,-0.35,0.12,0.06,-0.56,976.43
10.843,-0.03,1.26,-0.16,2.12,-1.43,-0.35,0.12,0.06,-0.56,976.43
10.845,-0.03,1.26,-0.16,2.12,-1.43,-0.35,0.17,0.39,-0.84,976.43
10.847,-0.03,1.26,-0.16,1.26,1.05,1.02,0.17,0.39,-0.84,976.43
10.868,-0.16,1.25,-0.24,1.26,1.05,1.02,0.17,0.39,-0.84,976.43
10.891,-0.09,0.91,-0.37,1.26,1.05,1.02,0.17,0.39,-0.84,976.43
10.893,-0.09,0.91,-0.37,1.26,1.05,1.02,0.30,0.26,-1.10,976.43
10.894,-0.09,0.91,-0.37,1.60,1.12,1.13,0.30,0.26,-1.10,976.43
10.898,-0.09,0.91,-0.37,1.60,1.12,1.13,0.30,0.26,-1.10,976.44
10.903,0.05,0.88,-0.41,1.60,1.12,1.13,0.30,0.26,-1.10,976.44
10.923,0.19,1.17,-0.53,1.60,1.12,1.13,0.30,0.26,-1.10,976.44
10.925,0.19,1.17,-0.53,1.60,1.12,1.13,0.47,-1.02,-1.32,976.44
10.925,0.19,1.17,-0.53,1.30,0.90,0.08,0.47,-1.02,-1.32,976.44
10.943,0.19,1.27,-0.62,1.30,0.90,0.08,0.47,-1.02,-1.32,976.44
10.969,0.19,1.27,-0.62,1.30,0.90,0.08,0.47,-1.02,-1.32,976.45
10.972,0.10,1.53,-0.32,1.30,0.90,0.08,0.47,-1.02,-1.32,976.45
10.973,0.10,1.53,-0.32,1.30,0.90,0.08,0.38,-2.29,-1.75,976.45
10.973,0.10,1.53,-0.32,4.35,4.08,-1.44,0.38,-2.29,-1.75,976.45
10.982,0.45,2.12,-0.02,4.35,4.08,-1.44,0.38,-2.29,-1.75,976.45
11.001,1.01,2.67,0.02,4.35,4.08,-1.44,0.38,-2.29,-1.75,976.45
11.003,1.01,2.67,0.02,4.35,4.08,-1.44,0.06,-2.87,-2.55,976.45
11.003,1.01,2.67,0.02,5.50,4.36,-1.78,0.06,-2.87,-2.55,976.45
11.019,1.01,2.67,0.02,5.50,4.36,-1.78,0.06,-2.87,-2.55,976.44
11.022,0.65,2.40,0.15,5.50,4.36,-1.78,0.06,-2.87,-2.55,976.44
11.042,0.46,1.18,0.39,5.50,4.36,-1.78,0.06,-2.87,-2.55,976.44
11.045,0.46,1.18,0.39,5.50,4.36,-1.78,-0.40,-2.79,-3.99,976.44
11.047,0.46,1.18,0.39,12.19,15.35,2.79,-0.40,-2.79,-3.99,976.44
11.061,0.77,0.19,-0.37,12.19,15.35,2.79,-0.40,-2.79,-3.99,976.44
11.09,0.77,0.19,-0.37,12.19,15.35,2.79,-0.40,-2.79,-3.99,976.43
11.091,-0.63,-0.24,-1.36,12.19,15.35,2.79,-0.40,-2.79,-3.99,976.43
11.095,-0.63,-0.24,-1.36,12.19,15.35,2.79,0.58,1.02,-3.43,976.43
11.097,-0.63,-0.24,-1.36,8.09,-3.53,-1.58,0.58,1.02,-3.43,976.43
11.101,-2.17,-0.68,-1.39,8.09,-3.53,-1.58,0.58,1.02,-3.43,976.43
11.123,-1.49,-0.57,-0.59,8.09,-3.53,-1.58,0.58,1.02,-3.43,976.43
11.126,-1.49,-0.57,-0.59,8.09,-3.53,-1.58,0.97,3.97,-3.41,976.43
11.128,-1.49,-0.57,-0.59,8.32,-2.50,-0.31,0.97,3.97,-3.41,976.43
11.141,-1.49,-0.57,-0.59,8.32,-2.50,-0.31,0.97,3.97,-3.41,976.42
11.144,-0.06,-0.04,-0.02,8.32,-2.50,-0.31,0.97,3.97,-3.41,976.42
11.172,0.21,-0.05,-0.42,8.32,-2.50,-0.31,0.97,3.97,-3.41,976.42
11.174,0.21,-0.05,-0.42,8.32,-2.50,-0.31,-0.42,-0.99,-0.24,976.42
11.175,0.21,-0.05,-0.42,-5.50,-10.29,-2.80,-0.42,-0.99,-0.24,976.42
11.18,-0.26,-0.04,-0.25,-5.50,-10.29,-2.80,-0.42,-0.99,-0.24,976.42
11.208,-0.26,-0.04,-0.25,-5.50,-10.29,-2.80,-0.42,-0.99,-0.24,976.42
11.211,-0.53,0.01,-0.24,-5.50,-10.29,-2.80,-0.42,-0.99,-0.24,976.42
11.213,-0.53,0.01,-0.24,-5.50,-10.29,-2.80,-1.12,-0.49,1.52,976.42
11.214,-0.53,0.01,-0.24,4.39,-6.75,0.36,-1.12,-0.49,1.52,976.42
11.218,-0.40,0.02,-0.20,4.39,-6.75,0.36,-1.12,-0.49,1.52,976.42
11.239,-0.31,0.16,-0.14,4.39,-6.75,0.36,-1.12,-0.49,1.52,976.42
11.241,-0.31,0.16,-0.14,4.39,-6.75,0.36,-1.42,0.69,2.64,976.42
11.242,-0.31,0.16,-0.14,3.53,-7.42,0.13,-1.42,0.69,2.64,976.42
11.268,-0.31,0.16,-0.14,3.53,-7.42,0.13,-1.42,0.69,2.64,976.42
11.278,-0.31,0.37,-0.16,3.53,-7.42,0.13,-1.42,0.69,2.64,976.42
11.279,-0.29,0.55,-0.12,3.53,-7.42,0.13,-1.42,0.69,2.64,976.42
11.28,-0.29,0.55,-0.12,3.53,-7.42,0.13,-1.33,-0.04,3.51,976.42
11.28,-0.29,0.55,-0.12,1.02,-6.09,1.04,-1.33,-0.04,3.51,976.42
11.309,-0.27,0.64,0.04,1.02,-6.09,1.04,-1.33,-0.04,3.51,976.42
11.321,-0.27,0.64,0.04,0.75,-2.27,2.31,-1.33,-0.04,3.51,976.42
11.322,-0.12,0.73,0.11,0.75,-2.27,2.31,-1.33,-0.04,3.51,976.42
11.323,-0.12,0.73,0.11,0.75,-2.27,2.31,-0.97,-0.60,4.31,976.42
11.324,-0.12,0.73,0.11,0.75,-2.27,2.31,-0.97,-0.60,4.31,976.42
11.337,-0.01,0.91,-0.01,0.75,-2.27,2.31,-0.97,-0.60,4.31,976.42
11.365,-0.36,1.09,-0.22,0.75,-2.27,2.31,-0.97,-0.60,4.31,976.42
11.367,-0.36,1.09,-0.22,0.75,-2.27,2.31,-0.39,0.44,4.43,976.42
11.368,-0.36,1.09,-0.22,-0.80,-2.64,2.18,-0.39,0.44,4.43,976.42
11.376,-0.74,1.28,-0.34,-0.80,-2.64,2.18,-0.39,0.44,4.43,976.42
11.378,-0.74,1.28,-0.34,-0.80,-2.64,2.18,-0.39,0.44,4.43,976.42
11.397,-0.59,1.40,-0.31,-0.80,-2.64,2.18,-0.39,0.44,4.43,976.42
11.399,-0.59,1.40,-0.31,-0.80,-2.64,2.18,-0.37,1.80,3.78,976.42
11.399,-0.59,1.40,-0.31,-3.64,1.63,0.14,-0.37,1.80,3.78,976.42
11.417,-0.46,1.46,-0.40,-3.64,1.63,0.14,-0.37,1.80,3.78,976.42
11.439,-0.46,1.46,-0.40,-7.08,5.16,-2.31,-0.37,1.80,3.78,976.42
11.443,-0.70,1.50,-0.53,-7.08,5.16,-2.31,-0.37,1.80,3.78,976.42
11.445,-0.70,1.50,-0.53,-7.08,5.16,-2.31,-0.70,1.70,3.80,976.42
11.447,-0.70,1.50,-0.53,-7.08,5.16,-2.31,-0.70,1.70,3.80,976.41
11.456,-0.68,1.34,-0.39,-7.08,5.16,-2.31,-0.70,1.70,3.80,976.41
11.49,-0.26,1.01,-0.26,-7.08,5.16,-2.31,-0.70,1.70,3.80,976.41
11.493,-0.26,1.01,-0.26,-7.08,5.16,-2.31,-0.70,0.29,2.68,976.41
11.494,-0.26,1.01,-0.26,-7.92,5.22,-2.54,-0.70,0.29,2.68,976.41
11.495,-0.00,1.16,-0.27,-7.92,5.22,-2.54,-0.70,0.29,2.68,976.41
11.504,-0.00,1.16,-0.27,-7.92,5.22,-2.54,-0.70,0.29,2.68,976.42
11.516,-0.01,1.33,-0.19,-7.92,5.22,-2.54,-0.70,0.29,2.68,976.42
11.518,-0.01,1.33,-0.19,-7.92,5.22,-2.54,-0.45,-1.42,1.25,976.42
11.52,-0.01,1.33,-0.19,-5.53,2.44,-1.48,-0.45,-1.42,1.25,976.42
11.535,-0.21,1.13,-0.05,-5.53,2.44,-1.48,-0.45,-1.42,1.25,976.42
11.555,-0.14,0.96,0.06,-5.53,2.44,-1.48,-0.45,-1.42,1.25,976.42
11.559,-0.14,0.96,0.06,-5.53,2.44,-1.48,-0.30,-1.12,-0.12,976.42
11.561,-0.14,0.96,0.06,-3.51,2.12,0.91,-0.30,-1.12,-0.12,976.42
11.563,-0.14,0.96,0.06,-3.51,2.12,0.91,-0.30,-1.12,-0.12,976.44
11.575,0.12,0.86,0.05,-3.51,2.12,0.91,-0.30,-1.12,-0.12,976.44
11.595,0.20,0.78,0.09,-3.51,2.12,0.91,-0.30,-1.12,-0.12,976.44
11.597,0.20,0.78,0.09,-3.51,2.12,0.91,-0.11,-0.84,-0.57,976.44
11.599,0.20,0.78,0.09,-3.20,2.03,0.93,-0.11,-0.84,-0.57,976.44
11.615,0.31,1.08,-0.09,-3.20,2.03,0.93,-0.11,-0.84,-0.57,976.44
11.622,0.31,1.08,-0.09,-3.20,2.03,0.93,-0.11,-0.84,-0.57,976.45
11.633,-0.40,1.83,-1.23,-3.20,2.03,0.93,-0.11,-0.84,-0.57,976.45
11.634,-0.40,1.83,-1.23,-3.20,2.03,0.93,0.48,0.34,-0.99,976.45
11.635,-0.40,1.83,-1.23,0.38,-0.33,1.82,0.48,0.34,-0.99,976.45
11.66,-0.70,1.83,0.60,0.38,-0.33,1.82,0.48,0.34,-0.99,976.45
11.684,1.97,1.03,-0.37,0.38,-0.33,1.82,0.48,0.34,-0.99,976.45
11.685,1.97,1.03,-0.37,0.38,-0.33,1.82,1.05,0.65,-1.88,976.45
11.686,1.97,1.03,-0.37,1.80,6.01,-1.24,1.05,0.65,-1.88,976.45
11.687,1.97,1.03,-0.37,1.80,6.01,-1.24,1.05,0.65,-1.88,976.44
11.693,1.73,0.64,-1.06,1.80,6.01,-1.24,1.05,0.65,-1.88,976.44
11.712,0.56,0.96,0.04,1.80,6.01,-1.24,1.05,0.65,-1.88,976.44
11.715,0.56,0.96,0.04,1.80,6.01,-1.24,1.14,-0.96,-0.33,976.44
11.717,0.56,0.96,0.04,1.97,6.00,-0.77,1.14,-0.96,-0.33,976.44
11.732,-0.16,0.91,-0.23,1.97,6.00,-0.77,1.14,-0.96,-0.33,976.44
11.74,-0.16,0.91,-0.23,1.97,6.00,-0.77,1.14,-0.96,-0.33,976.43
11.756,0.06,1.20,-0.47,1.97,6.00,-0.77,1.14,-0.96,-0.33,976.43
11.759,0.06,1.20,-0.47,1.97,6.00,-0.77,0.90,1.97,-1.26,976.43
11.761,0.06,1.20,-0.47,6.22,-1.03,-1.27,0.90,1.97,-1.26,976.43
11.785,0.39,3.08,0.53,6.22,-1.03,-1.27,0.90,1.97,-1.26,976.43
11.792,-0.41,1.52,-0.45,6.22,-1.03,-1.27,0.90,1.97,-1.26,976.43
11.793,-0.41,1.52,-0.45,6.22,-1.03,-1.27,0.54,1.32,-1.17,976.43
11.794,-0.41,1.52,-0.45,-0.31,9.58,1.66,0.54,1.32,-1.17,976.43
11.796,-0.41,1.52,-0.45,-0.31,9.58,1.66,0.54,1.32,-1.17,976.44
11.815,-0.61,-0.16,-1.02,-0.31,9.58,1.66,0.54,1.32,-1.17,976.44
11.83,-0.12,0.28,-0.70,-0.31,9.58,1.66,0.54,1.32,-1.17,976.44
11.832,-0.12,0.28,-0.70,-0.31,9.58,1.66,0.70,-0.18,-0.98,976.44
11.833,-0.12,0.28,-0.70,0.07,9.49,1.88,0.70,-0.18,-0.98,976.44
11.85,0.02,1.21,-0.22,0.07,9.49,1.88,0.70,-0.18,-0.98,976.44
11.866,0.02,1.21,-0.22,0.07,9.49,1.88,0.70,-0.18,-0.98,976.44
11.871,-0.24,1.43,-0.16,0.07,9.49,1.88,0.70,-0.18,-0.98,976.44
11.873,-0.24,1.43,-0.16,0.07,9.49,1.88,-0.22,-0.48,-0.14,976.44
11.874,-0.24,1.43,-0.16,-2.23,-5.05,-3.22,-0.22,-0.48,-0.14,976.44
11.89,-0.07,0.97,-0.27,-2.23,-5.05,-3.22,-0.22,-0.48,-0.14,976.44
11.911,0.20,0.72,-0.31,-2.23,-5.05,-3.22,-0.22,-0.48,-0.14,976.44
11.914,0.20,0.72,-0.31,-2.23,-5.05,-3.22,-0.18,0.12,0.06,976.44
11.916,0.20,0.72,-0.31,-0.32,0.77,0.62,-0.18,0.12,0.06,976.44
11.918,0.20,0.72,-0.31,-0.32,0.77,0.62,-0.18,0.12,0.06,976.44
11.931,0.17,0.90,-0.23,-0.32,0.77,0.62,-0.18,0.12,0.06,976.44
11.95,0.08,1.05,-0.20,-0.32,0.77,0.62,-0.18,0.12,0.06,976.44
11.953,0.08,1.05,-0.20,-0.32,0.77,0.62,0.01,0.06,-0.10,976.44
11.955,0.08,1.05,-0.20,-0.28,0.76,0.62,0.01,0.06,-0.10,976.44
11.976,0.16,0.97,-0.25,-0.28,0.76,0.62,0.01,0.06,-0.10,976.44
11.978,0.16,0.97,-0.25,-0.28,0.76,0.62,0.01,0.06,-0.10,976.43
11.995,0.18,0.89,-0.28,-0.28,0.76,0.62,0.01,0.06,-0.10,976.43
11.997,0.18,0.89,-0.28,-0.28,0.76,0.62,0.11,0.07,-0.39,976.43
11.998,0.18,0.89,-0.28,1.56,0.08,0.82,0.11,0.07,-0.39,976.43
12.008,0.11,0.96,-0.25,1.56,0.08,0.82,0.11,0.07,-0.39,976.43
12.028,0.16,1.01,-0.27,1.56,0.08,0.82,0.11,0.07,-0.39,976.43
12.03,0.16,1.01,-0.27,1.56,0.08,0.82,0.26,-0.10,-0.75,976.43
12.031,0.16,1.01,-0.27,1.94,-0.05,0.54,0.26,-0.10,-0.75,976.43
12.039,0.16,1.01,-0.27,1.94,-0.05,0.54,0.26,-0.10,-0.75,976.43
12.048,0.18,0.93,-0.30,1.94,-0.05,0.54,0.26,-0.10,-0.75,976.43
12.069,0.06,0.90,-0.30,1.94,-0.05,0.54,0.26,-0.10,-0.75,976.43
12.072,0.06,0.90,-0.30,1.94,-0.05,0.54,0.42,-0.28,-1.12,976.43
12.074,0.06,0.90,-0.30,2.35,0.03,0.68,0.42,-0.28,-1.12,976.43
12.096,0.06,0.97,-0.33,2.35,0.03,0.68,0.42,-0.28,-1.12,976.43
12.097,0.06,0.97,-0.33,2.35,0.03,0.68,0.42,-0.28,-1.12,976.43
12.12,0.04,1.00,-0.31,2.35,0.03,0.68,0.42,-0.28,-1.12,976.43
12.121,0.04,1.00,-0.31,2.35,0.03,0.68,0.55,-0.36,-1.50,976.43
12.122,0.04,1.00,-0.31,2.38,-0.03,0.42,0.55,-0.36,-1.50,976.43
12.127,-0.17,0.89,-0.36,2.38,-0.03,0.42,0.55,-0.36,-1.50,976.43
12.147,-0.43,0.86,-0.51,2.38,-0.03,0.42,0.55,-0.36,-1.50,976.43
12.149,-0.43,0.86,-0.51,2.38,-0.03,0.42,0.68,-0.83,-1.90,976.43
12.15,-0.43,0.86,-0.51,0.37,0.03,-0.21,0.68,-0.83,-1.90,976.43
12.175,-0.43,0.86,-0.51,0.37,0.03,-0.21,0.68,-0.83,-1.90,976.43
12.177,-0.34,1.07,-0.67,0.37,0.03,-0.21,0.68,-0.83,-1.90,976.43
12.198,-0.00,1.15,-0.68,0.37,0.03,-0.21,0.68,-0.83,-1.90,976.43
12.2,-0.00,1.15,-0.68,0.37,0.03,-0.21,0.57,-1.60,-1.89,976.43
12.201,-0.00,1.15,-0.68,1.24,0.31,-0.17,0.57,-1.60,-1.89,976.43
12.206,0.30,1.48,-0.57,1.24,0.31,-0.17,0.57,-1.60,-1.89,976.43
12.216,0.30,1.48,-0.57,1.24,0.31,-0.17,0.57,-1.60,-1.89,976.44
12.226,0.01,1.75,-0.27,1.24,0.31,-0.17,0.57,-1.60,-1.89,976.44
12.227,0.01,1.75,-0.27,1.24,0.31,-0.17,0.15,-2.70,-1.93,976.44
12.228,0.01,1.75,-0.27,3.90,3.63,-2.89,0.15,-2.70,-1.93,976.44
12.247,0.15,1.86,-0.06,3.90,3.63,-2.89,0.15,-2.70,-1.93,976.44
12.267,0.85,2.13,0.16,3.90,3.63,-2.89,0.15,-2.70,-1.93,976.44
12.269,0.85,2.13,0.16,3.90,3.63,-2.89,-0.43,-3.33,-2.80,976.44
12.27,0.85,2.13,0.16,8.49,10.62,2.04,-0.43,-3.33,-2.80,976.44
12.276,0.85,2.13,0.16,8.49,10.62,2.04,-0.43,-3.33,-2.80,976.44
12.285,0.71,2.11,0.07,8.49,10.62,2.04,-0.43,-3.33,-2.80,976.44
12.305,-0.03,0.58,-0.42,8.49,10.62,2.04,-0.43,-3.33,-2.80,976.44
12.306,-0.03,0.58,-0.42,8.49,10.62,2.04,0.19,-1.25,-3.85,976.44
12.307,-0.03,0.58,-0.42,9.62,11.34,1.79,0.19,-1.25,-3.85,976.44
12.325,-1.11,-0.31,-0.81,9.62,11.34,1.79,0.19,-1.25,-3.85,976.44
12.337,-1.11,-0.31,-0.81,9.62,11.34,1.79,0.19,-1.25,-3.85,976.43
12.345,-2.24,-0.52,-1.11,9.62,11.34,1.79,0.19,-1.25,-3.85,976.43
12.346,-2.24,-0.52,-1.11,9.62,11.34,1.79,1.20,3.43,-3.09,976.43
12.346,-2.24,-0.52,-1.11,5.26,1.26,-0.17,1.20,3.43,-3.09,976.43
12.364,-1.36,-0.05,-0.43,5.26,1.26,-0.17,1.20,3.43,-3.09,976.43
12.394,-1.36,-0.05,-0.43,-5.12,-7.11,-1.24,1.20,3.43,-3.09,976.43
12.396,-0.17,0.18,0.02,-5.12,-7.11,-1.24,1.20,3.43,-3.09,976.43
12.398,-0.17,0.18,0.02,-5.12,-7.11,-1.24,0.25,0.24,-1.78,976.43
12.399,-0.17,0.18,0.02,-5.12,-7.11,-1.24,0.25,0.24,-1.78,976.43
12.426,0.38,0.00,-0.00,-5.12,-7.11,-1.24,0.25,0.24,-1.78,976.43
12.429,0.07,-0.06,-0.22,-5.12,-7.11,-1.24,0.25,0.24,-1.78,976.43
12.431,0.07,-0.06,-0.22,-5.12,-7.11,-1.24,-0.61,-1.85,0.88,976.43
12.432,0.07,-0.06,-0.22,-5.00,-7.32,-1.88,-0.61,-1.85,0.88,976.43
12.444,-0.56,0.04,-0.12,-5.00,-7.32,-1.88,-0.61,-1.85,0.88,976.43
12.466,-0.56,0.04,-0.12,-5.00,-7.32,-1.88,-0.61,-1.85,0.88,976.44
12.467,-0.57,0.15,-0.08,-5.00,-7.32,-1.88,-0.61,-1.85,0.88,976.44
12.468,-0.57,0.15,-0.08,-5.00,-7.32,-1.88,-0.84,1.10,1.99,976.44
12.468,-0.57,0.15,-0.08,6.20,-6.67,2.04,-0.84,1.10,1.99,976.44
12.482,-0.27,0.28,-0.05,6.20,-6.67,2.04,-0.84,1.10,1.99,976.44
12.502,-0.16,0.39,-0.02,6.20,-6.67,2.04,-0.84,1.10,1.99,976.44
12.505,-0.16,0.39,-0.02,6.20,-6.67,2.04,-0.92,0.74,2.90,976.44
12.506,-0.16,0.39,-0.02,2.36,-4.64,2.56,-0.92,0.74,2.90,976.44
12.516,-0.16,0.39,-0.02,2.36,-4.64,2.56,-0.92,0.74,2.90,976.42
12.523,-0.12,0.51,-0.01,2.36,-4.64,2.56,-0.92,0.74,2.90,976.42
12.545,-0.18,0.64,-0.07,2.36,-4.64,2.56,-0.92,0.74,2.90,976.42
12.548,-0.18,0.64,-0.07,2.36,-4.64,2.56,-0.80,0.52,3.61,976.42
12.55,-0.18,0.64,-0.07,1.17,-5.36,2.38,-0.80,0.52,3.61,976.42
12.563,-0.26,0.72,-0.06,1.17,-5.36,2.38,-0.80,0.52,3.61,976.42
12.597,-0.26,0.72,-0.06,1.17,-5.36,2.38,-0.80,0.52,3.61,976.41
12.599,-0.26,0.75,-0.05,1.17,-5.36,2.38,-0.80,0.52,3.61,976.41
12.6,-0.26,0.75,-0.05,1.17,-5.36,2.38,-0.80,0.58,4.07,976.41
12.601,-0.26,0.75,-0.05,1.16,-2.62,2.14,-0.80,0.58,4.07,976.41
12.603,-0.22,0.81,-0.12,1.16,-2.62,2.14,-0.80,0.58,4.07,976.41
12.621,-0.25,0.92,-0.25,1.16,-2.62,2.14,-0.80,0.58,4.07,976.41
12.622,-0.25,0.92,-0.25,1.16,-2.62,2.14,-0.80,0.98,4.27,976.41
12.623,-0.25,0.92,-0.25,-0.98,-1.04,1.04,-0.80,0.98,4.27,976.41
12.636,-0.25,0.92,-0.25,-0.98,-1.04,1.04,-0.80,0.98,4.27,976.41
12.641,-0.31,1.10,-0.50,-0.98,-1.04,1.04,-0.80,0.98,4.27,976.41
12.662,-0.49,1.35,-0.52,-0.98,-1.04,1.04,-0.80,0.98,4.27,976.41
12.664,-0.49,1.35,-0.52,-0.98,-1.04,1.04,-0.99,1.79,4.17,976.41
12.666,-0.49,1.35,-0.52,-2.62,-1.20,0.70,-0.99,1.79,4.17,976.41
12.688,-0.67,1.49,-0.51,-2.62,-1.20,0.70,-0.99,1.79,4.17,976.41
12.695,-0.67,1.49,-0.51,-2.62,-1.20,0.70,-0.99,1.79,4.17,976.43
12.7,-0.72,1.61,-0.59,-2.62,-1.20,0.70,-0.99,1.79,4.17,976.43
12.701,-0.72,1.61,-0.59,-2.62,-1.20,0.70,-1.17,1.34,3.94,976.43
12.702,-0.72,1.61,-0.59,-6.46,3.58,-3.35,-1.17,1.34,3.94,976.43
12.723,-0.78,1.44,-0.44,-6.46,3.58,-3.35,-1.17,1.34,3.94,976.43
12.743,-0.47,1.06,-0.28,-6.46,3.58,-3.35,-1.17,1.34,3.94,976.43
12.747,-0.47,1.06,-0.28,-6.46,3.58,-3.35,-1.19,-0.67,2.90,976.43
12.75,-0.47,1.06,-0.28,-8.99,4.26,-2.98,-1.19,-0.67,2.90,976.43
12.757,-0.47,1.06,-0.28,-8.99,4.26,-2.98,-1.19,-0.67,2.90,976.44
12.76,-0.14,1.07,-0.21,-8.99,4.26,-2.98,-1.19,-0.67,2.90,976.44
12.78,0.04,1.02,-0.02,-8.99,4.26,-2.98,-1.19,-0.67,2.90,976.44
12.784,0.04,1.02,-0.02,-8.99,4.26,-2.98,-0.78,-2.21,0.98,976.44
12.786,0.04,1.02,-0.02,-9.07,4.25,-2.97,-0.78,-2.21,0.98,976.44
12.812,-0.05,0.93,0.12,-9.07,4.25,-2.97,-0.78,-2.21,0.98,976.44
12.819,-0.05,0.93,0.12,-9.07,4.25,-2.97,-0.78,-2.21,0.98,976.45
12.82,-0.07,0.84,0.14,-9.07,4.25,-2.97,-0.78,-2.21,0.98,976.45
12.821,-0.07,0.84,0.14,-9.07,4.25,-2.97,-0.05,-0.56,-0.86,976.45
12.821,-0.07,0.84,0.14,-2.73,0.60,0.99,-0.05,-0.56,-0.86,976.45
12.849,0.45,1.04,-0.17,-2.73,0.60,0.99,-0.05,-0.56,-0.86,976.45
12.861,0.45,1.04,-0.17,-2.98,4.01,-3.46,-0.05,-0.56,-0.86,976.45
12.864,-0.83,2.25,-1.52,-2.98,4.01,-3.46,-0.05,-0.56,-0.86,976.45
12.866,-0.83,2.25,-1.52,-2.98,4.01,-3.46,0.78,1.60,-2.07,976.45
12.882,-0.83,2.25,-1.52,-2.98,4.01,-3.46,0.78,1.60,-2.07,976.46
12.884,-1.26,1.86,1.00,-2.98,4.01,-3.46,0.78,1.60,-2.07,976.46
12.901,2.55,0.68,-1.55,-2.98,4.01,-3.46,0.78,1.60,-2.07,976.46
12.903,2.55,0.68,-1.55,-2.98,4.01,-3.46,1.45,0.54,-2.60,976.46
12.903,2.55,0.68,-1.55,-2.01,3.94,-2.90,1.45,0.54,-2.60,976.46
12.917,2.34,0.47,-0.85,-2.01,3.94,-2.90,1.45,0.54,-2.60,976.46
12.935,2.34,0.47,-0.85,-2.01,3.94,-2.90,1.45,0.54,-2.60,976.47
12.938,0.21,0.96,0.05,-2.01,3.94,-2.90,1.45,0.54,-2.60,976.47
12.938,0.21,0.96,0.05,-2.01,3.94,-2.90,1.27,-1.39,0.03,976.47
12.94,0.21,0.96,0.05,11.26,0.40,-1.92,1.27,-1.39,0.03,976.47
12.958,-0.82,0.99,-0.57,11.26,0.40,-1.92,1.27,-1.39,0.03,976.47
12.978,-0.20,1.87,-0.10,11.26,0.40,-1.92,1.27,-1.39,0.03,976.47
12.981,-0.20,1.87,-0.10,11.26,0.40,-1.92,0.76,2.81,-1.46,976.47
12.983,-0.20,1.87,-0.10,-2.98,3.09,0.88,0.76,2.81,-1.46,976.47
13.01,-0.20,1.87,-0.10,-2.98,3.09,0.88,0.76,2.81,-1.46,976.47
13.013,-0.01,3.58,0.55,-2.98,3.09,0.88,0.76,2.81,-1.46,976.47
13.016,-0.43,1.01,-0.47,-2.98,3.09,0.88,0.76,2.81,-1.46,976.47
13.017,-0.43,1.01,-0.47,-2.98,3.09,0.88,0.30,1.23,-0.48,976.47
13.017,-0.43,1.01,-0.47,-2.89,3.07,0.96,0.30,1.23,-0.48,976.47
13.046,-0.46,-0.27,-1.15,-2.89,3.07,0.96,0.30,1.23,-0.48,976.47
13.058,-0.46,-0.27,-1.15,-2.89,3.07,0.96,0.30,1.23,-0.48,976.47
13.06,-0.46,-0.27,-1.15,-3.00,4.61,-0.37,0.30,1.23,-0.48,976.47
13.061,0.31,0.42,-0.63,-3.00,4.61,-0.37,0.30,1.23,-0.48,976.47
13.062,0.31,0.42,-0.63,-3.00,4.61,-0.37,0.36,-0.85,-0.16,976.47
13.087,0.40,1.37,-0.07,-3.00,4.61,-0.37,0.36,-0.85,-0.16,976.47
13.097,0.00,1.43,-0.01,-3.00,4.61,-0.37,0.36,-0.85,-0.16,976.47
13.098,0.00,1.43,-0.01,-3.00,4.61,-0.37,-0.49,-0.88,0.35,976.47
13.099,0.00,1.43,-0.01,2.21,0.96,0.59,-0.49,-0.88,0.35,976.47
13.115,0.00,1.43,-0.01,2.21,0.96,0.59,-0.49,-0.88,0.35,976.47
13.119,0.05,0.77,-0.20,2.21,0.96,0.59,-0.49,-0.88,0.35,976.47
13.134,0.18,0.51,-0.28,2.21,0.96,0.59,-0.49,-0.88,0.35,976.47
13.136,0.18,0.51,-0.28,2.21,0.96,0.59,-0.17,-0.24,-0.06,976.47
13.137,0.18,0.51,-0.28,2.22,0.93,0.52,-0.17,-0.24,-0.06,976.47
13.162,0.20,0.70,-0.37,2.22,0.93,0.52,-0.17,-0.24,-0.06,976.47
13.185,0.20,0.70,-0.37,2.22,0.93,0.52,-0.17,-0.24,-0.06,976.47
13.186,0.17,0.99,-0.30,2.22,0.93,0.52,-0.17,-0.24,-0.06,976.47
13.187,0.17,0.99,-0.30,2.22,0.93,0.52,0.05,-0.05,-0.39,976.47
13.187,0.17,0.99,-0.30,1.44,-3.07,0.10,0.05,-0.05,-0.39,976.47
13.193,0.15,1.15,-0.15,1.44,-3.07,0.10,0.05,-0.05,-0.39,976.47
13.214,0.11,1.12,-0.05,1.44,-3.07,0.10,0.05,-0.05,-0.39,976.47
13.215,0.11,1.12,-0.05,1.44,-3.07,0.10,0.04,0.28,-0.63,976.47
13.215,0.11,1.12,-0.05,1.63,1.12,1.26,0.04,0.28,-0.63,976.47
13.234,0.11,0.98,-0.20,1.63,1.12,1.26,0.04,0.28,-0.63,976.47
13.235,0.11,0.98,-0.20,1.63,1.12,1.26,0.04,0.28,-0.63,976.48
13.253,0.20,0.94,-0.34,1.63,1.12,1.26,0.04,0.28,-0.63,976.48
13.254,0.20,0.94,-0.34,1.63,1.12,1.26,0.29,0.18,-1.00,976.48
13.255,0.20,0.94,-0.34,1.95,1.15,1.35,0.29,0.18,-1.00,976.48
13.275,0.22,0.93,-0.38,1.95,1.15,1.35,0.29,0.18,-1.00,976.48
13.292,-0.01,0.92,-0.26,1.95,1.15,1.35,0.29,0.18,-1.00,976.48
13.294,-0.01,0.92,-0.26,1.95,1.15,1.35,0.46,-0.00,-1.41,976.48
13.295,-0.01,0.92,-0.26,2.77,-0.10,0.15,0.46,-0.00,-1.41,976.48
13.296,-0.01,0.92,-0.26,2.77,-0.10,0.15,0.46,-0.00,-1.41,976.48
13.313,-0.23,0.95,-0.15,2.77,-0.10,0.15,0.46,-0.00,-1.41,976.48
13.333,-0.18,0.95,-0.28,2.77,-0.10,0.15,0.46,-0.00,-1.41,976.48
13.336,-0.18,0.95,-0.28,2.77,-0.10,0.15,0.56,-0.32,-1.65,976.48
13.338,-0.18,0.95,-0.28,0.29,-0.04,1.04,0.56,-0.32,-1.65,976.48
13.353,-0.14,0.88,-0.39,0.29,-0.04,1.04,0.56,-0.32,-1.65,976.48
13.356,-0.14,0.88,-0.39,0.29,-0.04,1.04,0.56,-0.32,-1.65,976.46
13.376,-0.34,0.88,-0.49,0.29,-0.04,1.04,0.56,-0.32,-1.65,976.46
13.378,-0.34,0.88,-0.49,0.29,-0.04,1.04,0.69,-0.97,-1.68,976.46
13.378,-0.34,0.88,-0.49,1.01,0.19,1.20,0.69,-0.97,-1.68,976.46
13.408,-0.42,1.02,-0.55,1.01,0.19,1.20,0.69,-0.97,-1.68,976.46
13.411,-0.11,1.04,-0.64,1.01,0.19,1.20,0.69,-0.97,-1.68,976.46
13.414,-0.11,1.04,-0.64,1.01,0.19,1.20,0.55,-1.55,-1.65,976.46
13.416,-0.11,1.04,-0.64,0.24,0.29,-1.18,0.55,-1.55,-1.65,976.46
13.418,-0.11,1.04,-0.64,0.24,0.29,-1.18,0.55,-1.55,-1.65,976.45
13.432,0.11,1.09,-0.73,0.24,0.29,-1.18,0.55,-1.55,-1.65,976.45
13.451,0.15,1.45,-0.54,0.24,0.29,-1.18,0.55,-1.55,-1.65,976.45
13.453,0.15,1.45,-0.54,0.24,0.29,-1.18,0.16,-2.39,-1.71,976.45
13.458,0.15,1.45,-0.54,4.47,3.15,-2.98,0.16,-2.39,-1.71,976.45
13.475,0.19,1.85,-0.26,4.47,3.15,-2.98,0.16,-2.39,-1.71,976.45
13.476,0.19,1.85,-0.26,4.47,3.15,-2.98,0.16,-2.39,-1.71,976.44
13.492,0.11,2.13,-0.21,4.47,3.15,-2.98,0.16,-2.39,-1.71,976.44
13.494,0.11,2.13,-0.21,4.47,3.15,-2.98,-0.20,-3.00,-2.54,976.44
13.495,0.11,2.13,-0.21,5.57,3.52,-3.53,-0.20,-3.00,-2.54,976.44
13.509,0.53,2.54,-0.08,5.57,3.52,-3.53,-0.20,-3.00,-2.54,976.44
13.529,-0.27,1.63,-0.01,5.57,3.52,-3.53,-0.20,-3.00,-2.54,976.44
13.53,-0.27,1.63,-0.01,5.57,3.52,-3.53,-0.60,-2.33,-3.64,976.44
13.53,-0.27,1.63,-0.01,8.98,13.63,0.18,-0.60,-2.33,-3.64,976.44
13.533,-0.27,1.63,-0.01,8.98,13.63,0.18,-0.60,-2.33,-3.64,976.44
13.549,-0.33,0.25,0.08,8.98,13.63,0.18,-0.60,-2.33,-3.64,976.44
13.571,-0.33,0.25,0.08,4.37,-1.40,-0.25,-0.60,-2.33,-3.64,976.44
13.573,-0.18,-0.21,-0.86,4.37,-1.40,-0.25,-0.60,-2.33,-3.64,976.44
13.575,-0.18,-0.21,-0.86,4.37,-1.40,-0.25,0.11,1.16,-2.84,976.44
13.589,-1.74,-0.36,-0.97,4.37,-1.40,-0.25,0.11,1.16,-2.84,976.44
13.593,-1.74,-0.36,-0.97,4.37,-1.40,-0.25,0.11,1.16,-2.84,976.45
13.608,-2.18,-0.06,-0.51,4.37,-1.40,-0.25,0.11,1.16,-2.84,976.45
13.61,-2.18,-0.06,-0.51,4.37,-1.40,-0.25,0.58,2.96,-2.24,976.45
13.61,-2.18,-0.06,-0.51,4.54,-0.69,0.72,0.58,2.96,-2.24,976.45
13.63,-0.74,0.28,-0.41,4.54,-0.69,0.72,0.58,2.96,-2.24,976.45
13.648,-0.22,-0.06,-0.32,4.54,-0.69,0.72,0.58,2.96,-2.24,976.45
13.651,-0.22,-0.06,-0.32,4.54,-0.69,0.72,-0.22,-0.73,-0.67,976.45
13.653,-0.22,-0.06,-0.32,-7.75,-6.38,-3.07,-0.22,-0.73,-0.67,976.45
13.655,-0.22,-0.06,-0.32,-7.75,-6.38,-3.07,-0.22,-0.73,-0.67,976.47
13.669,-0.03,-0.26,0.28,-7.75,-6.38,-3.07,-0.22,-0.73,-0.67,976.47
13.688,0.08,-0.06,0.07,-7.75,-6.38,-3.07,-0.22,-0.73,-0.67,976.47
13.69,0.08,-0.06,0.07,-7.75,-6.38,-3.07,-0.59,-1.23,1.42,976.47
13.691,0.08,-0.06,0.07,6.58,-7.48,2.63,-0.59,-1.23,1.42,976.47
13.712,0.22,0.30,-0.05,6.58,-7.48,2.63,-0.59,-1.23,1.42,976.47
13.714,0.22,0.30,-0.05,6.58,-7.48,2.63,-0.59,-1.23,1.42,976.47
13.728,-0.10,0.48,-0.11,6.58,-7.48,2.63,-0.59,-1.23,1.42,976.47
13.73,-0.10,0.48,-0.11,6.58,-7.48,2.63,-0.45,0.26,2.10,976.47
13.732,-0.10,0.48,-0.11,5.92,-7.96,2.54,-0.45,0.26,2.10,976.47
13.747,-0.46,0.45,-0.04,5.92,-7.96,2.54,-0.45,0.26,2.10,976.47
13.769,-0.35,0.47,0.04,5.92,-7.96,2.54,-0.45,0.26,2.10,976.47
13.772,-0.35,0.47,0.04,5.92,-7.96,2.54,-0.35,0.94,2.30,976.47
13.774,-0.35,0.47,0.04,4.56,-3.23,1.94,-0.35,0.94,2.30,976.47
13.776,-0.35,0.47,0.04,4.56,-3.23,1.94,-0.35,0.94,2.30,976.47
13.797,-0.17,0.56,-0.03,4.56,-3.23,1.94,-0.35,0.94,2.30,976.47
13.825,-0.22,0.62,-0.11,4.56,-3.23,1.94,-0.35,0.94,2.30,976.47
13.827,-0.22,0.62,-0.11,4.56,-3.23,1.94,-0.33,1.19,3.05,976.47
13.828,-0.22,0.62,-0.11,2.17,-2.48,2.33,-0.33,1.19,3.05,976.47
13.828,-0.32,0.67,-0.22,2.17,-2.48,2.33,-0.33,1.19,3.05,976.47
13.833,-0.32,0.67,-0.22,2.17,-2.48,2.33,-0.33,1.19,3.05,976.46
13.846,-0.32,0.74,-0.20,2.17,-2.48,2.33,-0.33,1.19,3.05,976.46
13.849,-0.32,0.74,-0.20,2.17,-2.48,2.33,-0.52,1.30,3.51,976.46
13.851,-0.32,0.74,-0.20,0.88,-3.04,2.33,-0.52,1.30,3.51,976.46
13.867,-0.27,0.87,-0.16,0.88,-3.04,2.33,-0.52,1.30,3.51,976.46
13.886,-0.31,0.99,-0.22,0.88,-3.04,2.33,-0.52,1.30,3.51,976.46
13.888,-0.31,0.99,-0.22,0.88,-3.04,2.33,-0.77,1.03,3.96,976.46
13.889,-0.31,0.99,-0.22,-1.08,-1.42,0.59,-0.77,1.03,3.96,976.46
13.893,-0.31,0.99,-0.22,-1.08,-1.42,0.59,-0.77,1.03,3.96,976.46
13.91,-0.40,1.03,-0.34,-1.08,-1.42,0.59,-0.77,1.03,3.96,976.46
13.925,-0.33,1.12,-0.36,-1.08,-1.42,0.59,-0.77,1.03,3.96,976.46
13.927,-0.33,1.12,-0.36,-1.08,-1.42,0.59,-0.85,1.07,4.06,976.46
13.928,-0.33,1.12,-0.36,-3.00,1.13,-0.76,-0.85,1.07,4.06,976.46
13.944,-0.24,1.26,-0.42,-3.00,1.13,-0.76,-0.85,1.07,4.06,976.46
13.953,-0.24,1.26,-0.42,-3.00,1.13,-0.76,-0.85,1.07,4.06,976.46
13.965,-0.39,1.30,-0.45,-3.00,1.13,-0.76,-0.85,1.07,4.06,976.46
13.968,-0.39,1.30,-0.45,-3.00,1.13,-0.76,-0.89,1.10,3.83,976.46
13.97,-0.39,1.30,-0.45,-4.41,1.09,-1.09,-0.89,1.10,3.83,976.46
13.995,-0.67,1.36,-0.40,-4.41,1.09,-1.09,-0.89,1.10,3.83,976.46
14.004,-0.59,1.28,-0.32,-4.41,1.09,-1.09,-0.89,1.10,3.83,976.46
14.005,-0.59,1.28,-0.32,-4.41,1.09,-1.09,-0.92,0.47,3.05,976.46
14.005,-0.59,1.28,-0.32,-6.30,3.65,-2.58,-0.92,0.47,3.05,976.46
14.018,-0.59,1.28,-0.32,-6.30,3.65,-2.58,-0.92,0.47,3.05,976.48
14.026,-0.17,1.06,-0.35,-6.30,3.65,-2.58,-0.92,0.47,3.05,976.48
14.043,0.12,1.20,-0.27,-6.30,3.65,-2.58,-0.92,0.47,3.05,976.48
14.044,0.12,1.20,-0.27,-6.30,3.65,-2.58,-0.82,-1.42,2.16,976.48
14.045,0.12,1.20,-0.27,-4.76,2.53,-1.58,-0.82,-1.42,2.16,976.48
14.064,0.22,1.22,-0.18,-4.76,2.53,-1.58,-0.82,-1.42,2.16,976.48
14.094,0.22,1.22,-0.18,-4.76,2.53,-1.58,-0.82,-1.42,2.16,976.49
14.096,0.22,1.22,-0.18,-4.89,2.54,-1.60,-0.82,-1.42,2.16,976.49
14.097,0.03,0.97,-0.08,-4.89,2.54,-1.60,-0.82,-1.42,2.16,976.49
14.097,0.03,0.97,-0.08,-4.89,2.54,-1.60,-0.48,-1.14,0.78,976.49
14.104,-0.01,0.86,-0.09,-4.89,2.54,-1.60,-0.48,-1.14,0.78,976.49
14.141,-0.01,0.86,-0.09,-1.78,0.87,0.32,-0.48,-1.14,0.78,976.49
14.145,0.06,0.93,-0.05,-1.78,0.87,0.32,-0.48,-1.14,0.78,976.49
14.147,0.06,0.93,-0.05,-1.78,0.87,0.32,0.19,0.35,-0.59,976.49
14.149,0.06,0.93,-0.05,-1.78,0.87,0.32,0.19,0.35,-0.59,976.49
14.151,0.62,1.47,-0.46,-1.78,0.87,0.32,0.19,0.35,-0.59,976.49
14.162,-0.82,2.14,-1.17,-1.78,0.87,0.32,0.19,0.35,-0.59,976.49
14.164,-0.82,2.14,-1.17,-1.78,0.87,0.32,1.19,1.60,-1.74,976.49
14.165,-0.82,2.14,-1.17,-2.48,5.56,-3.64,1.19,1.60,-1.74,976.49
14.195,-0.07,1.27,0.92,-2.48,5.56,-3.64,1.19,1.60,-1.74,976.49
14.198,-0.07,1.27,0.92,-2.48,5.56,-3.64,1.19,1.60,-1.74,976.51
14.23,1.76,0.78,-0.26,-2.48,5.56,-3.64,1.19,1.60,-1.74,976.51
14.232,1.76,0.78,-0.26,-2.48,5.56,-3.64,1.45,0.13,-2.35,976.51
14.234,1.76,0.78,-0.26,-1.60,5.44,-3.08,1.45,0.13,-2.35,976.51
14.234,0.78,0.79,-0.49,-1.60,5.44,-3.08,1.45,0.13,-2.35,976.51
14.242,0.19,1.09,-0.05,-1.60,5.44,-3.08,1.45,0.13,-2.35,976.51
14.243,0.19,1.09,-0.05,-1.60,5.44,-3.08,1.19,-0.24,-0.63,976.51
14.244,0.19,1.09,-0.05,7.07,-0.00,3.32,1.19,-0.24,-0.63,976.51
14.253,0.19,1.09,-0.05,7.07,-0.00,3.32,1.19,-0.24,-0.63,976.52
14.261,0.05,0.91,-0.89,7.07,-0.00,3.32,1.19,-0.24,-0.63,976.52
14.291,0.40,1.59,-0.54,7.07,-0.00,3.32,1.19,-0.24,-0.63,976.52
14.293,0.40,1.59,-0.54,7.07,-0.00,3.32,0.99,1.78,-1.34,976.52
14.294,0.40,1.59,-0.54,1.35,2.48,-1.72,0.99,1.78,-1.34,976.52
14.3,-0.17,3.21,0.80,1.35,2.48,-1.72,0.99,1.78,-1.34,976.52
14.328,-0.17,3.21,0.80,1.35,2.48,-1.72,0.99,1.78,-1.34,976.51
14.33,-0.63,0.99,-0.45,1.35,2.48,-1.72,0.99,1.78,-1.34,976.51
14.331,-0.63,0.99,-0.45,1.35,2.48,-1.72,0.46,0.71,-0.81,976.51
14.333,-0.63,0.99,-0.45,1.53,2.48,-1.54,0.46,0.71,-0.81,976.51
14.341,-0.05,-0.19,-1.20,1.53,2.48,-1.54,0.46,0.71,-0.81,976.51
14.363,0.48,0.39,-0.71,1.53,2.48,-1.54,0.46,0.71,-0.81,976.51
14.365,0.48,0.39,-0.71,-2.94,3.82,0.74,0.46,0.71,-0.81,976.51
14.366,0.48,0.39,-0.71,-2.94,3.82,0.74,0.54,-0.71,-0.68,976.51
14.372,0.48,0.39,-0.71,-2.94,3.82,0.74,0.54,-0.71,-0.68,976.50
14.396,0.08,1.21,-0.05,-2.94,3.82,0.74,0.54,-0.71,-0.68,976.50
14.4,0.08,1.21,-0.05,0.58,0.69,0.85,0.54,-0.71,-0.68,976.50
14.402,-0.39,1.46,-0.02,0.58,0.69,0.85,0.54,-0.71,-0.68,976.50
14.403,-0.39,1.46,-0.02,0.58,0.69,0.85,-0.22,-0.45,-0.34,976.50
14.427,-0.02,1.02,-0.28,0.58,0.69,0.85,-0.22,-0.45,-0.34,976.50
14.431,-0.02,1.02,-0.28,0.58,0.69,0.85,-0.22,-0.45,-0.34,976.49
14.438,0.21,0.70,-0.42,0.58,0.69,0.85,-0.22,-0.45,-0.34,976.49
14.439,0.21,0.70,-0.42,0.58,0.69,0.85,0.05,-0.01,-0.33,976.49
14.44,0.21,0.70,-0.42,0.69,0.69,0.85,0.05,-0.01,-0.33,976.49
14.479,0.15,0.77,-0.38,0.69,0.69,0.85,0.05,-0.01,-0.33,976.49
14.483,0.15,0.77,-0.38,1.41,-1.12,-0.08,0.05,-0.01,-0.33,976.49
14.485,0.04,0.97,-0.26,1.41,-1.12,-0.08,0.05,-0.01,-0.33,976.49
14.486,0.04,0.97,-0.26,1.41,-1.12,-0.08,0.19,-0.17,-0.44,976.49
14.509,0.04,0.97,-0.26,1.41,-1.12,-0.08,0.19,-0.17,-0.44,976.49
14.511,0.11,1.04,-0.19,1.41,-1.12,-0.08,0.19,-0.17,-0.44,976.49
14.519,0.25,0.99,-0.23,1.41,-1.12,-0.08,0.19,-0.17,-0.44,976.49
14.522,0.25,0.99,-0.23,1.41,-1.12,-0.08,0.21,-0.17,-0.69,976.49
14.524,0.25,0.99,-0.23,1.82,0.58,1.29,0.21,-0.17,-0.69,976.49
14.538,0.23,0.96,-0.40,1.82,0.58,1.29,0.21,-0.17,-0.69,976.49
14.552,0.23,0.96,-0.40,1.82,0.58,1.29,0.21,-0.17,-0.69,976.49
14.56,0.23,0.96,-0.40,2.25,0.67,1.41,0.21,-0.17,-0.69,976.49
14.564,-0.04,0.93,-0.44,2.25,0.67,1.41,0.21,-0.17,-0.69,976.49
14.566,-0.04,0.93,-0.44,2.25,0.67,1.41,0.44,-0.35,-1.14,976.49
14.58,-0.30,0.88,-0.37,2.25,0.67,1.41,0.44,-0.35,-1.14,976.49
14.615,-0.20,0.93,-0.28,2.25,0.67,1.41,0.44,-0.35,-1.14,976.49
14.616,-0.20,0.93,-0.28,2.25,0.67,1.41,0.52,-0.61,-1.45,976.49
14.617,-0.20,0.93,-0.28,1.20,0.10,-0.14,0.52,-0.61,-1.45,976.49
14.617,-0.20,0.93,-0.28,1.20,0.10,-0.14,0.52,-0.61,-1.45,976.49
14.618,-0.01,0.92,-0.37,1.20,0.10,-0.14,0.52,-0.61,-1.45,976.49
14.65,-0.13,1.00,-0.50,1.20,0.10,-0.14,0.52,-0.61,-1.45,976.49
14.651,-0.13,1.00,-0.50,1.20,0.10,-0.14,0.51,-1.20,-1.38,976.49
14.652,-0.13,1.00,-0.50,1.08,0.48,0.11,0.51,-1.20,-1.38,976.49
14.656,-0.22,1.15,-0.43,1.08,0.48,0.11,0.51,-1.20,-1.38,976.49
14.671,-0.22,1.15,-0.43,1.08,0.48,0.11,0.51,-1.20,-1.38,976.49
14.686,0.01,1.25,-0.41,1.08,0.48,0.11,0.51,-1.20,-1.38,976.49
14.687,0.01,1.25,-0.41,1.08,0.48,0.11,0.43,-1.71,-1.63,976.49
14.689,0.01,1.25,-0.41,1.87,0.70,0.08,0.43,-1.71,-1.63,976.49
14.713,0.08,1.34,-0.30,1.87,0.70,0.08,0.43,-1.71,-1.63,976.49
14.715,0.12,1.26,-0.32,1.87,0.70,0.08,0.43,-1.71,-1.63,976.49
14.717,0.12,1.26,-0.32,1.87,0.70,0.08,0.34,-2.32,-2.08,976.49
14.718,0.12,1.26,-0.32,3.54,3.90,-0.05,0.34,-2.32,-2.08,976.49
14.731,0.12,1.26,-0.32,3.54,3.90,-0.05,0.34,-2.32,-2.08,976.49
14.735,-0.27,1.48,-0.35,3.54,3.90,-0.05,0.34,-2.32,-2.08,976.49
14.755,-0.09,1.88,0.09,3.54,3.90,-0.05,0.34,-2.32,-2.08,976.49
14.758,-0.09,1.88,0.09,3.54,3.90,-0.05,0.03,-1.97,-2.97,976.49
14.76,-0.09,1.88,0.09,4.34,7.22,1.41,0.03,-1.97,-2.97,976.49
14.795,0.72,1.95,-0.01,4.34,7.22,1.41,0.03,-1.97,-2.97,976.49
14.797,0.72,1.95,-0.01,4.34,7.22,1.41,0.03,-1.97,-2.97,976.50
14.797,0.12,1.26,-0.25,4.34,7.22,1.41,0.03,-1.97,-2.97,976.50
14.798,0.12,1.26,-0.25,4.34,7.22,1.41,-0.28,-1.60,-3.32,976.50
14.798,0.12,1.26,-0.25,5.44,7.80,0.96,-0.28,-1.60,-3.32,976.50
14.819,-0.53,0.22,-0.45,5.44,7.80,0.96,-0.28,-1.60,-3.32,976.50
14.834,-1.10,-0.20,-1.10,5.44,7.80,0.96,-0.28,-1.60,-3.32,976.50
14.836,-1.10,-0.20,-1.10,5.44,7.80,0.96,0.42,1.97,-2.91,976.50
14.839,-1.10,-0.20,-1.10,7.62,4.62,1.12,0.42,1.97,-2.91,976.50
14.85,-1.10,-0.20,-1.10,7.62,4.62,1.12,0.42,1.97,-2.91,976.50
14.853,-1.59,-0.14,-1.12,7.62,4.62,1.12,0.42,1.97,-2.91,976.50
14.872,-1.12,0.25,-0.90,7.62,4.62,1.12,0.42,1.97,-2.91,976.50
14.873,-1.12,0.25,-0.90,7.62,4.62,1.12,0.61,2.60,-2.27,976.50
14.878,-1.12,0.25,-0.90,-5.59,-6.07,-5.81,0.61,2.60,-2.27,976.50
14.924,-0.25,0.44,-0.21,-5.59,-6.07,-5.81,0.61,2.60,-2.27,976.50
14.925,-0.25,0.44,-0.21,-5.59,-6.07,-5.81,0.61,2.60,-2.27,976.49
14.925,0.01,0.16,0.07,-5.59,-6.07,-5.81,0.61,2.60,-2.27,976.49
14.926,0.01,0.16,0.07,-5.59,-6.07,-5.81,-0.40,-1.04,-0.43,976.49
14.926,0.01,0.16,0.07,-5.23,-5.92,-6.09,-0.40,-1.04,-0.43,976.49
14.933,-0.04,-0.11,-0.21,-5.23,-5.92,-6.09,-0.40,-1.04,-0.43,976.49
14.952,-0.02,0.07,-0.02,-5.23,-5.92,-6.09,-0.40,-1.04,-0.43,976.49
14.953,-0.02,0.07,-0.02,-5.23,-5.92,-6.09,-0.99,-1.07,1.86,976.49
14.953,-0.02,0.07,-0.02,5.93,-4.60,2.40,-0.99,-1.07,1.86,976.49
14.97,-0.02,0.07,-0.02,5.93,-4.60,2.40,-0.99,-1.07,1.86,976.49
14.972,-0.12,0.29,-0.08,5.93,-4.60,2.40,-0.99,-1.07,1.86,976.49
14.994,-0.23,0.35,-0.15,5.93,-4.60,2.40,-0.99,-1.07,1.86,976.49
14.995,-0.23,0.35,-0.15,5.93,-4.60,2.40,-1.09,0.18,2.81,976.49
14.996,-0.23,0.35,-0.15,4.81,-4.69,2.45,-1.09,0.18,2.81,976.49
15.033,-0.25,0.35,-0.10,4.81,-4.69,2.45,-1.09,0.18,2.81,976.49
15.036,-0.25,0.35,-0.10,4.81,-4.69,2.45,-1.09,0.18,2.81,976.50
15.038,-0.23,0.41,-0.04,4.81,-4.69,2.45,-1.09,0.18,2.81,976.50
15.04,-0.23,0.41,-0.04,4.81,-4.69,2.45,-1.02,0.01,3.50,976.50
15.042,-0.23,0.41,-0.04,3.72,-5.49,2.11,-1.02,0.01,3.50,976.50
15.051,-0.19,0.51,0.01,3.72,-5.49,2.11,-1.02,0.01,3.50,976.50
15.074,-0.15,0.71,-0.04,3.72,-5.49,2.11,-1.02,0.01,3.50,976.50
15.076,-0.15,0.71,-0.04,3.72,-5.49,2.11,-0.80,0.10,4.21,976.50
15.078,-0.15,0.71,-0.04,1.32,-4.36,2.20,-0.80,0.10,4.21,976.50
15.098,-0.15,0.71,-0.04,1.32,-4.36,2.20,-0.80,0.10,4.21,976.50
15.1,-0.15,0.95,-0.10,1.32,-4.36,2.20,-0.80,0.10,4.21,976.50
15.136,-0.21,1.04,-0.11,1.32,-4.36,2.20,-0.80,0.10,4.21,976.50
15.138,-0.21,1.04,-0.11,1.32,-4.36,2.20,-0.71,1.07,4.38,976.50
15.14,-0.21,1.04,-0.11,0.19,-0.25,1.65,-0.71,1.07,4.38,976.50
15.141,-0.27,1.00,-0.18,0.19,-0.25,1.65,-0.71,1.07,4.38,976.50
15.15,-0.27,1.00,-0.18,0.19,-0.25,1.65,-0.71,1.07,4.38,976.50
15.152,-0.18,1.15,-0.37,0.19,-0.25,1.65,-0.71,1.07,4.38,976.50
15.153,-0.18,1.15,-0.37,0.19,-0.25,1.65,-0.91,1.86,4.17,976.50
15.154,-0.18,1.15,-0.37,-1.47,-0.50,1.37,-0.91,1.86,4.17,976.50
15.17,-0.22,1.46,-0.46,-1.47,-0.50,1.37,-0.91,1.86,4.17,976.50
15.192,-0.64,1.53,-0.51,-1.47,-0.50,1.37,-0.91,1.86,4.17,976.50
15.194,-0.64,1.53,-0.51,-1.47,-0.50,1.37,-1.08,2.52,3.86,976.50
15.195,-0.64,1.53,-0.51,-3.51,2.46,-1.55,-1.08,2.52,3.86,976.50
15.227,-0.85,1.17,-0.51,-3.51,2.46,-1.55,-1.08,2.52,3.86,976.50
15.23,-0.85,1.17,-0.51,-3.51,2.46,-1.55,-1.08,2.52,3.86,976.49
15.232,-0.39,0.96,-0.38,-3.51,2.46,-1.55,-1.08,2.52,3.86,976.49
15.233,-0.39,0.96,-0.38,-3.51,2.46,-1.55,-1.23,1.16,2.92,976.49
15.235,-0.39,0.96,-0.38,-8.47,2.73,-3.30,-1.23,1.16,2.92,976.49
15.248,0.08,1.37,-0.33,-8.47,2.73,-3.30,-1.23,1.16,2.92,976.49
15.268,0.24,1.29,-0.41,-8.47,2.73,-3.30,-1.23,1.16,2.92,976.49
15.27,0.24,1.29,-0.41,-8.47,2.73,-3.30,-0.96,-1.19,1.90,976.49
15.27,0.24,1.29,-0.41,-8.96,2.84,-3.45,-0.96,-1.19,1.90,976.49
15.271,0.24,1.29,-0.41,-8.96,2.84,-3.45,-0.96,-1.19,1.90,976.50
15.291,-0.05,0.87,-0.21,-8.96,2.84,-3.45,-0.96,-1.19,1.90,976.50
15.309,-0.37,0.83,-0.10,-8.96,2.84,-3.45,-0.96,-1.19,1.90,976.50
15.31,-0.37,0.83,-0.10,-8.96,2.84,-3.45,-0.14,-0.46,0.31,976.50
15.313,-0.37,0.83,-0.10,-2.00,2.37,-1.98,-0.14,-0.46,0.31,976.50
15.327,-0.26,1.00,-0.11,-2.00,2.37,-1.98,-0.14,-0.46,0.31,976.50
15.329,-0.26,1.00,-0.11,-2.00,2.37,-1.98,-0.14,-0.46,0.31,976.52
15.347,-0.03,0.99,-0.16,-2.00,2.37,-1.98,-0.14,-0.46,0.31,976.52
15.348,-0.03,0.99,-0.16,-2.00,2.37,-1.98,0.36,-0.26,-0.94,976.52
15.349,-0.03,0.99,-0.16,-4.63,-0.02,0.09,0.36,-0.26,-0.94,976.52
15.366,0.50,1.65,-1.52,-4.63,-0.02,0.09,0.36,-0.26,-0.94,976.52
15.398,-0.67,2.34,-0.62,-4.63,-0.02,0.09,0.36,-0.26,-0.94,976.52
15.4,-0.67,2.34,-0.62,-4.63,-0.02,0.09,1.36,0.17,-2.17,976.52
15.401,-0.67,2.34,-0.62,-3.78,-0.11,0.57,1.36,0.17,-2.17,976.52
15.402,-0.67,2.34,-0.62,-3.78,-0.11,0.57,1.36,0.17,-2.17,976.54
15.407,1.70,1.36,1.14,-3.78,-0.11,0.57,1.36,0.17,-2.17,976.54
15.429,1.46,0.57,-0.45,-3.78,-0.11,0.57,1.36,0.17,-2.17,976.54
15.431,1.46,0.57,-0.45,-3.78,-0.11,0.57,1.53,-0.04,-1.93,976.54
15.431,1.46,0.57,-0.45,4.02,8.04,-0.90,1.53,-0.04,-1.93,976.54
15.446,-0.64,1.17,0.29,4.02,8.04,-0.90,1.53,-0.04,-1.93,976.54
15.449,-0.64,1.17,0.29,4.02,8.04,-0.90,1.53,-0.04,-1.93,976.54
15.467,-0.16,1.64,-0.18,4.02,8.04,-0.90,1.53,-0.04,-1.93,976.54
15.469,-0.16,1.64,-0.18,4.02,8.04,-0.90,1.19,0.62,-1.34,976.54
15.47,-0.16,1.64,-0.18,1.60,1.67,1.63,1.19,0.62,-1.34,976.54
15.499,0.29,1.28,-0.73,1.60,1.67,1.63,1.19,0.62,-1.34,976.54
15.507,0.35,1.09,-0.70,1.60,1.67,1.63,1.19,0.62,-1.34,976.54
15.51,0.35,1.09,-0.70,1.60,1.67,1.63,0.96,0.79,-1.29,976.54
15.512,0.35,1.09,-0.70,1.95,1.74,1.94,0.96,0.79,-1.29,976.54
15.539,0.35,1.09,-0.70,1.95,1.74,1.94,0.96,0.79,-1.29,976.53
15.542,0.08,1.46,-0.26,1.95,1.74,1.94,0.96,0.79,-1.29,976.53
15.547,-0.48,1.45,-0.29,1.95,1.74,1.94,0.96,0.79,-1.29,976.53
15.55,-0.48,1.45,-0.29,1.95,1.74,1.94,0.55,-0.25,-0.88,976.53
15.551,-0.48,1.45,-0.29,2.48,3.24,-2.22,0.55,-0.25,-0.88,976.53
15.564,-0.35,1.02,-0.38,2.48,3.24,-2.22,0.55,-0.25,-0.88,976.53
15.568,-0.35,1.02,-0.38,2.48,3.24,-2.22,0.55,-0.25,-0.88,976.53
15.585,-0.35,1.02,-0.38,-2.27,1.61,-0.34,0.55,-0.25,-0.88,976.53
15.586,0.01,0.87,-0.47,-2.27,1.61,-0.34,0.55,-0.25,-0.88,976.53
15.586,0.01,0.87,-0.47,-2.27,1.61,-0.34,0.20,-0.37,-0.57,976.53
15.604,0.02,0.92,-0.45,-2.27,1.61,-0.34,0.20,-0.37,-0.57,976.53
15.623,0.05,0.96,-0.36,-2.27,1.61,-0.34,0.20,-0.37,-0.57,976.53
15.624,0.05,0.96,-0.36,-2.27,1.61,-0.34,-0.04,-0.59,-0.23,976.53
15.625,0.05,0.96,-0.36,-2.07,1.58,-0.36,-0.04,-0.59,-0.23,976.53
15.628,0.05,0.96,-0.36,-2.07,1.58,-0.36,-0.04,-0.59,-0.23,976.54
15.644,0.22,0.91,-0.27,-2.07,1.58,-0.36,-0.04,-0.59,-0.23,976.54
15.665,0.20,0.84,-0.23,-2.07,1.58,-0.36,-0.04,-0.59,-0.23,976.54
15.668,0.20,0.84,-0.23,-2.07,1.58,-0.36,-0.03,-0.66,-0.27,976.54
15.669,0.20,0.84,-0.23,1.71,-0.21,-0.21,-0.03,-0.66,-0.27,976.54
15.699,0.02,0.82,-0.23,1.71,-0.21,-0.21,-0.03,-0.66,-0.27,976.54
15.703,0.02,0.82,-0.23,1.71,-0.21,-0.21,-0.03,-0.66,-0.27,976.55
15.705,-0.03,0.84,-0.27,1.71,-0.21,-0.21,-0.03,-0.66,-0.27,976.55
15.707,-0.03,0.84,-0.27,1.71,-0.21,-0.21,0.17,-0.42,-0.72,976.55
15.709,-0.03,0.84,-0.27,1.66,-1.08,0.98,0.17,-0.42,-0.72,976.55
15.743,0.02,0.84,-0.28,1.66,-1.08,0.98,0.17,-0.42,-0.72,976.55
15.746,0.01,0.79,-0.31,1.66,-1.08,0.98,0.17,-0.42,-0.72,976.55
15.75,0.01,0.79,-0.31,1.66,-1.08,0.98,0.38,-0.42,-1.05,976.55
15.752,0.01,0.79,-0.31,2.06,-0.96,1.07,0.38,-0.42,-1.05,976.55
15.754,0.01,0.79,-0.31,2.06,-0.96,1.07,0.38,-0.42,-1.05,976.58
15.763,-0.08,0.78,-0.30,2.06,-0.96,1.07,0.38,-0.42,-1.05,976.58
15.798,-0.09,0.85,-0.32,2.06,-0.96,1.07,0.38,-0.42,-1.05,976.58
15.802,-0.09,0.85,-0.32,2.06,-0.96,1.07,0.58,-0.66,-1.33,976.58
15.804,-0.09,0.85,-0.32,1.83,-1.07,0.68,0.58,-0.66,-1.33,976.58
15.806,-0.09,0.86,-0.35,1.83,-1.07,0.68,0.58,-0.66,-1.33,976.58
15.809,-0.09,0.86,-0.35,1.83,-1.07,0.68,0.58,-0.66,-1.33,976.58
15.831,-0.14,0.78,-0.43,1.83,-1.07,0.68,0.58,-0.66,-1.33,976.58
15.833,-0.14,0.78,-0.43,1.83,-1.07,0.68,0.68,-0.83,-1.65,976.58
15.835,-0.14,0.78,-0.43,1.60,-0.57,0.15,0.68,-0.83,-1.65,976.58
15.84,-0.15,0.76,-0.41,1.60,-0.57,0.15,0.68,-0.83,-1.65,976.58
15.861,-0.28,0.90,-0.33,1.60,-0.57,0.15,0.68,-0.83,-1.65,976.58
15.863,-0.28,0.90,-0.33,1.60,-0.57,0.15,0.71,-1.31,-2.01,976.58
15.864,-0.28,0.90,-0.33,2.43,-0.21,0.23,0.71,-1.31,-2.01,976.58
15.868,-0.28,0.90,-0.33,2.43,-0.21,0.23,0.71,-1.31,-2.01,976.58
15.882,-0.49,1.00,-0.44,2.43,-0.21,0.23,0.71,-1.31,-2.01,976.58
15.916,-0.46,1.32,-0.45,2.43,-0.21,0.23,0.71,-1.31,-2.01,976.58
15.917,-0.46,1.32,-0.45,2.43,-0.21,0.23,0.60,-1.47,-2.23,976.58
15.918,-0.46,1.32,-0.45,1.38,0.81,-0.06,0.60,-1.47,-2.23,976.58
15.954,-0.04,1.77,-0.30,1.38,0.81,-0.06,0.60,-1.47,-2.23,976.58
15.956,-0.04,1.77,-0.30,1.38,0.81,-0.06,0.60,-1.47,-2.23,976.56
15.957,0.44,2.10,-0.21,1.38,0.81,-0.06,0.60,-1.47,-2.23,976.56
15.959,0.44,2.10,-0.21,1.38,0.81,-0.06,0.33,-2.44,-2.40,976.56
15.96,0.44,2.10,-0.21,5.18,9.42,0.28,0.33,-2.44,-2.40,976.56
15.961,0.48,2.35,-0.29,5.18,9.42,0.28,0.33,-2.44,-2.40,976.56
15.993,-0.25,1.49,0.07,5.18,9.42,0.28,0.33,-2.44,-2.40,976.56
15.995,-0.25,1.49,0.07,5.18,9.42,0.28,-0.06,-2.75,-3.30,976.56
15.997,-0.25,1.49,0.07,6.34,10.03,-0.38,-0.06,-2.75,-3.30,976.56
15.998,-0.25,1.49,0.07,6.34,10.03,-0.38,-0.06,-2.75,-3.30,976.56
16.0,-0.52,0.60,-0.23,6.34,10.03,-0.38,-0.06,-2.75,-3.30,976.56
16.037,-0.48,0.09,-0.97,6.34,10.03,-0.38,-0.06,-2.75,-3.30,976.56
16.041,-0.48,0.09,-0.97,6.34,10.03,-0.38,0.48,0.16,-3.43,976.56
16.043,-0.48,0.09,-0.97,6.36,8.42,1.44,0.48,0.16,-3.43,976.56
16.045,-0.79,-0.27,-0.83,6.36,8.42,1.44,0.48,0.16,-3.43,976.56
16.051,-0.79,-0.27,-0.83,6.36,8.42,1.44,0.48,0.16,-3.43,976.56
16.059,-1.02,-0.23,-0.73,6.36,8.42,1.44,0.48,0.16,-3.43,976.56
16.061,-1.02,-0.23,-0.73,6.36,8.42,1.44,0.88,2.77,-1.76,976.56
16.063,-1.02,-0.23,-0.73,-0.17,-6.66,-4.27,0.88,2.77,-1.76,976.56
16.098,-1.00,0.04,-0.19,-0.17,-6.66,-4.27,0.88,2.77,-1.76,976.56
16.103,-1.00,0.04,-0.19,-0.41,-6.86,-4.18,0.88,2.77,-1.76,976.56
16.105,-0.77,0.18,-0.30,-0.41,-6.86,-4.18,0.88,2.77,-1.76,976.56
16.107,-0.77,0.18,-0.30,-0.41,-6.86,-4.18,-0.64,0.54,0.75,976.56
16.108,-0.77,0.18,-0.30,-0.41,-6.86,-4.18,-0.64,0.54,0.75,976.56
16.123,-0.31,0.24,-0.10,-0.41,-6.86,-4.18,-0.64,0.54,0.75,976.56
16.137,-0.08,0.24,0.01,-0.41,-6.86,-4.18,-0.64,0.54,0.75,976.56
16.139,-0.08,0.24,0.01,-0.41,-6.86,-4.18,-1.37,-1.34,2.80,976.56
16.14,-0.08,0.24,0.01,-0.19,-4.89,1.43,-1.37,-1.34,2.80,976.56
16.157,-0.01,0.22,-0.11,-0.19,-4.89,1.43,-1.37,-1.34,2.80,976.56
