time,gFx,gFy,gFz,ax,ay,az,wx,wy,wz,P
0.003,0.23,0.96,-0.06,-0.53,0.02,0.20,-0.03,-0.07,0.00,1012.84
0.005,0.23,0.96,-0.06,-0.53,0.02,0.20,-0.02,-0.22,0.12,1012.84
0.005,0.23,0.96,-0.06,-0.01,-0.05,-0.06,-0.02,-0.22,0.12,1012.84
0.011,0.23,0.96,-0.06,-0.01,-0.05,-0.06,-0.02,-0.22,0.12,1012.84
0.031,0.23,0.96,-0.06,0.81,-0.02,0.15,-0.02,-0.22,0.12,1012.84
0.032,0.32,0.97,-0.04,0.81,-0.02,0.15,-0.02,-0.22,0.12,1012.84
0.033,0.32,0.97,-0.04,0.81,-0.02,0.15,-0.05,-0.17,0.07,1012.84
0.069,0.21,0.97,-0.05,0.81,-0.02,0.15,-0.05,-0.17,0.07,1012.84
0.07,0.21,0.97,-0.05,0.81,-0.02,0.15,-0.02,0.05,-0.01,1012.84
0.071,0.21,0.97,-0.05,0.81,-0.02,0.15,-0.02,0.05,-0.01,1012.83
0.072,0.21,0.97,-0.05,-0.28,0.02,0.02,-0.02,0.05,-0.01,1012.83
0.109,0.22,0.96,-0.05,-0.28,0.02,0.02,-0.02,0.05,-0.01,1012.83
0.11,0.22,0.96,-0.05,-0.28,0.02,0.02,-0.02,-0.05,0.02,1012.83
0.111,0.22,0.96,-0.05,-0.14,-0.06,0.00,-0.02,-0.05,0.02,1012.83
0.138,0.22,0.96,-0.05,-0.14,-0.06,0.00,-0.02,-0.05,0.02,1012.82
0.15,0.25,0.97,-0.05,-0.14,-0.06,0.00,-0.02,-0.05,0.02,1012.82
0.151,0.25,0.97,-0.05,-0.14,-0.06,0.00,-0.03,-0.09,0.03,1012.82
0.151,0.25,0.97,-0.05,0.15,-0.00,0.01,-0.03,-0.09,0.03,1012.82
0.19,0.23,0.96,-0.04,0.15,-0.00,0.01,-0.03,-0.09,0.03,1012.82
0.192,0.23,0.96,-0.04,0.15,-0.00,0.01,-0.02,0.01,0.02,1012.82
0.194,0.23,0.96,-0.04,0.15,-0.00,0.01,-0.02,0.01,0.02,1012.81
0.195,0.23,0.96,-0.04,-0.02,-0.11,0.13,-0.02,0.01,0.02,1012.81
0.253,0.23,0.95,-0.04,-0.02,-0.11,0.13,-0.02,0.01,0.02,1012.81
0.257,0.23,0.95,-0.04,-0.02,-0.11,0.13,-0.02,-0.03,0.02,1012.81
0.26,0.23,0.95,-0.04,-0.03,-0.16,0.10,-0.02,-0.03,0.02,1012.81
0.263,0.23,0.95,-0.04,-0.03,-0.16,0.10,-0.02,-0.03,0.02,1012.81
0.295,0.27,0.98,-0.04,-0.03,-0.16,0.10,-0.02,-0.03,0.02,1012.81
0.298,0.27,0.98,-0.04,-0.03,-0.16,0.10,-0.01,-0.08,0.02,1012.81
0.305,0.27,0.98,-0.04,0.34,0.16,0.09,-0.01,-0.08,0.02,1012.81
0.31,0.27,0.98,-0.04,0.52,-0.26,0.40,-0.01,-0.08,0.02,1012.81
0.313,0.29,0.94,-0.01,0.52,-0.26,0.40,-0.01,-0.08,0.02,1012.81
0.315,0.29,0.94,-0.01,0.52,-0.26,0.40,0.02,0.02,-0.02,1012.81
0.318,0.29,0.94,-0.01,0.52,-0.26,0.40,0.02,0.02,-0.02,1012.81
0.347,0.29,0.94,-0.01,0.03,-0.02,-0.12,0.02,0.02,-0.02,1012.81
0.348,0.24,0.96,-0.06,0.03,-0.02,-0.12,0.02,0.02,-0.02,1012.81
0.349,0.24,0.96,-0.06,0.03,-0.02,-0.12,0.06,-0.01,-0.08,1012.81
0.378,0.24,0.96,-0.06,0.03,-0.02,-0.12,0.06,-0.01,-0.08,1012.82
0.386,0.33,0.97,-0.05,0.03,-0.02,-0.12,0.06,-0.01,-0.08,1012.82
0.387,0.33,0.97,-0.05,0.03,-0.02,-0.12,0.05,-0.24,-0.15,1012.82
0.39,0.33,0.97,-0.05,0.94,0.02,0.06,0.05,-0.24,-0.15,1012.82
0.425,0.30,0.96,0.00,0.94,0.02,0.06,0.05,-0.24,-0.15,1012.82
0.426,0.30,0.96,0.00,0.94,0.02,0.06,0.08,-0.12,-0.26,1012.82
0.426,0.30,0.96,0.00,0.76,-0.14,0.61,0.08,-0.12,-0.26,1012.82
0.429,0.30,0.96,0.00,0.76,-0.14,0.61,0.08,-0.12,-0.26,1012.83
0.465,0.23,0.97,0.07,0.76,-0.14,0.61,0.08,-0.12,-0.26,1012.83
0.466,0.23,0.97,0.07,0.76,-0.14,0.61,0.19,-0.10,-0.33,1012.83
0.469,0.23,0.97,0.07,0.17,-0.05,1.34,0.19,-0.10,-0.33,1012.83
0.491,0.23,0.97,0.07,0.17,-0.05,1.34,0.19,-0.10,-0.33,1012.83
0.506,0.20,0.95,0.06,0.17,-0.05,1.34,0.19,-0.10,-0.33,1012.83
0.508,0.20,0.95,0.06,0.17,-0.05,1.34,0.38,-0.15,-0.34,1012.83
0.51,0.20,0.95,0.06,0.00,-0.27,1.33,0.38,-0.15,-0.34,1012.83
0.545,0.18,0.94,-0.03,0.00,-0.27,1.33,0.38,-0.15,-0.34,1012.83
0.546,0.18,0.94,-0.03,0.00,-0.27,1.33,0.54,-0.15,-0.32,1012.83
0.547,0.18,0.94,-0.03,0.02,-0.33,0.64,0.54,-0.15,-0.32,1012.83
0.564,0.18,0.94,-0.03,0.02,-0.33,0.64,0.54,-0.15,-0.32,1012.83
0.588,0.10,0.91,-0.12,0.02,-0.33,0.64,0.54,-0.15,-0.32,1012.83
0.59,0.10,0.91,-0.12,0.02,-0.33,0.64,0.56,-0.13,-0.28,1012.83
0.592,0.10,0.91,-0.12,-0.66,-0.60,0.02,0.56,-0.13,-0.28,1012.83
0.611,0.10,0.91,-0.12,-0.66,-0.60,0.02,0.56,-0.13,-0.28,1012.82
0.633,-0.05,0.98,-0.21,-0.66,-0.60,0.02,0.56,-0.13,-0.28,1012.82
0.635,-0.05,0.98,-0.21,-0.66,-0.60,0.02,0.53,-0.30,-0.18,1012.82
0.637,-0.05,0.98,-0.21,-2.06,0.09,-0.66,0.53,-0.30,-0.18,1012.82
0.664,-0.01,1.04,-0.43,-2.06,0.09,-0.66,0.53,-0.30,-0.18,1012.82
0.666,-0.01,1.04,-0.43,-1.57,0.65,-2.52,0.53,-0.30,-0.18,1012.82
0.667,-0.01,1.04,-0.43,-1.57,0.65,-2.52,0.43,-0.71,-0.01,1012.82
0.673,-0.01,1.04,-0.43,-1.57,0.65,-2.52,0.43,-0.71,-0.01,1012.81
0.728,0.24,0.99,-0.23,-1.57,0.65,-2.52,0.43,-0.71,-0.01,1012.81
0.73,0.24,0.99,-0.23,-1.57,0.65,-2.52,0.21,-0.83,0.07,1012.81
0.731,0.24,0.99,-0.23,0.91,0.23,-0.44,0.21,-0.83,0.07,1012.81
0.732,0.24,0.99,-0.23,0.91,0.23,-0.44,0.21,-0.83,0.07,1012.81
0.743,0.37,1.05,-0.12,0.91,0.23,-0.44,0.21,-0.83,0.07,1012.81
0.745,0.37,1.05,-0.12,0.91,0.23,-0.44,0.20,-0.47,-0.02,1012.81
0.745,0.37,1.05,-0.12,2.21,0.78,0.69,0.20,-0.47,-0.02,1012.81
0.781,0.22,0.96,-0.24,2.21,0.78,0.69,0.20,-0.47,-0.02,1012.81
0.785,0.22,0.96,-0.24,2.21,0.78,0.69,0.21,-0.18,-0.19,1012.81
0.787,0.22,0.96,-0.24,0.74,-0.06,-0.37,0.21,-0.18,-0.19,1012.81
0.793,0.22,0.96,-0.24,0.74,-0.06,-0.37,0.21,-0.18,-0.19,1012.83
0.852,-0.01,0.93,-0.23,0.74,-0.06,-0.37,0.21,-0.18,-0.19,1012.83
0.856,-0.01,0.93,-0.23,0.74,-0.06,-0.37,0.16,-0.08,-0.21,1012.83
0.858,-0.01,0.93,-0.23,-1.33,-0.38,-0.24,0.16,-0.08,-0.21,1012.83
0.86,-0.01,0.93,-0.23,-1.33,-0.38,-0.24,0.16,-0.08,-0.21,1012.84
0.862,0.03,0.99,-0.09,-1.33,-0.38,-0.24,0.16,-0.08,-0.21,1012.84
0.864,0.03,0.99,-0.09,-1.33,-0.38,-0.24,0.20,-0.16,-0.02,1012.84
0.866,0.03,0.99,-0.09,-0.97,0.21,1.18,0.20,-0.16,-0.02,1012.84
0.902,-0.05,0.96,-0.15,-0.97,0.21,1.18,0.20,-0.16,-0.02,1012.84
0.906,-0.05,0.96,-0.15,-0.97,0.21,1.18,0.36,0.00,0.18,1012.84
0.907,-0.05,0.96,-0.15,-1.79,-0.05,0.74,0.36,0.00,0.18,1012.84
0.911,-0.05,0.96,-0.15,-1.79,-0.05,0.74,0.36,0.00,0.18,1012.84
0.943,-0.07,0.93,-0.26,-1.79,-0.05,0.74,0.36,0.00,0.18,1012.84
0.945,-0.07,0.93,-0.26,-1.79,-0.05,0.74,0.46,-0.03,0.44,1012.84
0.945,-0.07,0.93,-0.26,-2.08,-0.26,-0.16,0.46,-0.03,0.44,1012.84
0.972,-0.07,0.93,-0.26,-2.08,-0.26,-0.16,0.46,-0.03,0.44,1012.83
0.979,0.14,0.93,-0.26,-2.08,-0.26,-0.16,0.46,-0.03,0.44,1012.83
0.98,0.14,0.93,-0.26,-2.08,-0.26,-0.16,0.48,-0.18,0.66,1012.83
0.981,0.14,0.93,-0.26,-0.26,-0.16,0.00,0.48,-0.18,0.66,1012.83
1.04,0.13,0.99,-0.34,-0.26,-0.16,0.00,0.48,-0.18,0.66,1012.83
1.043,0.13,0.99,-0.34,-0.26,-0.16,0.00,0.50,-0.13,0.72,1012.83
1.043,0.13,0.99,-0.34,-0.59,0.51,-0.52,0.50,-0.13,0.72,1012.83
1.044,0.13,0.99,-0.34,-0.59,0.51,-0.52,0.50,-0.13,0.72,1012.83
1.075,0.40,1.09,-0.39,-0.59,0.51,-0.52,0.50,-0.13,0.72,1012.83
1.077,0.40,1.09,-0.39,-0.59,0.51,-0.52,0.43,-0.06,0.72,1012.83
1.077,0.40,1.09,-0.39,1.79,1.58,-0.87,0.43,-0.06,0.72,1012.83
1.092,0.40,1.09,-0.39,1.79,1.58,-0.87,0.43,-0.06,0.72,1012.82
1.099,0.45,1.34,-0.56,1.79,1.58,-0.87,0.43,-0.06,0.72,1012.82
1.102,0.45,1.34,-0.56,1.79,1.58,-0.87,0.23,0.33,0.43,1012.82
1.104,0.45,1.34,-0.56,2.07,4.07,-2.40,0.23,0.33,0.43,1012.82
1.139,0.51,1.79,-0.39,2.07,4.07,-2.40,0.23,0.33,0.43,1012.82
1.142,0.51,1.79,-0.39,2.07,4.07,-2.40,-0.17,0.44,0.06,1012.82
1.143,0.51,1.79,-0.39,2.52,8.27,-0.88,-0.17,0.44,0.06,1012.82
1.151,0.51,1.79,-0.39,2.52,8.27,-0.88,-0.17,0.44,0.06,1012.82
1.181,0.03,1.77,-0.08,2.52,8.27,-0.88,-0.17,0.44,0.06,1012.82
1.185,0.03,1.77,-0.08,2.52,8.27,-0.88,-0.41,1.13,-0.30,1012.82
1.187,0.03,1.77,-0.08,-2.18,7.90,1.87,-0.41,1.13,-0.30,1012.82
1.211,0.03,1.77,-0.08,-2.18,7.90,1.87,-0.41,1.13,-0.30,1012.82
1.216,-1.24,1.25,-0.08,-2.18,7.90,1.87,-0.41,1.13,-0.30,1012.82
1.218,-1.24,1.25,-0.08,-2.18,7.90,1.87,-0.08,1.76,0.09,1012.82
1.219,-1.24,1.25,-0.08,-14.57,2.77,1.65,-0.08,1.76,0.09,1012.82
1.256,0.73,1.77,-0.67,-14.57,2.77,1.65,-0.08,1.76,0.09,1012.82
1.26,0.73,1.77,-0.67,-14.57,2.77,1.65,1.46,-0.63,3.46,1012.82
1.262,0.73,1.77,-0.67,3.48,8.26,-3.42,1.46,-0.63,3.46,1012.82
1.28,0.73,1.77,-0.67,3.48,8.26,-3.42,1.46,-0.63,3.46,1012.83
1.296,1.24,1.55,-0.43,3.48,8.26,-3.42,1.46,-0.63,3.46,1012.83
1.299,1.24,1.55,-0.43,3.48,8.26,-3.42,2.11,0.62,3.71,1012.83
1.301,1.24,1.55,-0.43,7.04,6.90,-0.48,2.11,0.62,3.71,1012.83
1.34,1.24,1.55,-0.43,7.04,6.90,-0.48,2.11,0.62,3.71,1012.83
1.343,1.24,1.55,-0.43,-4.60,4.10,-1.44,2.11,0.62,3.71,1012.83
1.344,0.18,1.18,-0.52,-4.60,4.10,-1.44,2.11,0.62,3.71,1012.83
1.344,0.18,1.18,-0.52,-4.60,4.10,-1.44,1.61,2.77,2.74,1012.83
1.375,0.22,0.65,-0.32,-4.60,4.10,-1.44,1.61,2.77,2.74,1012.83
1.377,0.22,0.65,-0.32,-4.60,4.10,-1.44,0.69,0.77,2.69,1012.83
1.377,0.22,0.65,-0.32,-4.96,-0.25,0.47,0.69,0.77,2.69,1012.83
1.391,0.22,0.65,-0.32,-4.96,-0.25,0.47,0.69,0.77,2.69,1012.83
1.414,0.05,0.26,-0.16,-4.96,-0.25,0.47,0.69,0.77,2.69,1012.83
1.417,0.05,0.26,-0.16,-4.96,-0.25,0.47,0.25,-1.17,1.77,1012.83
1.418,0.05,0.26,-0.16,-6.76,-3.51,2.41,0.25,-1.17,1.77,1012.83
1.451,0.05,0.26,-0.16,-6.76,-3.51,2.41,0.25,-1.17,1.77,1012.81
1.453,0.02,0.16,-0.10,-6.76,-3.51,2.41,0.25,-1.17,1.77,1012.81
1.454,0.02,0.16,-0.10,-6.76,-3.51,2.41,-0.00,-1.65,0.40,1012.81
1.455,0.02,0.16,-0.10,-6.79,-4.30,3.36,-0.00,-1.65,0.40,1012.81
1.51,-0.09,0.05,-0.07,-6.79,-4.30,3.36,-0.00,-1.65,0.40,1012.81
1.513,-0.09,0.05,-0.07,-6.79,-4.30,3.36,-0.42,-1.27,-1.13,1012.81
1.514,-0.09,0.05,-0.07,-7.25,-5.65,3.87,-0.42,-1.27,-1.13,1012.81
1.516,-0.09,0.05,-0.07,-7.25,-5.65,3.87,-0.42,-1.27,-1.13,1012.80
1.531,-0.08,-0.04,-0.15,-7.25,-5.65,3.87,-0.42,-1.27,-1.13,1012.80
1.532,-0.08,-0.04,-0.15,-7.25,-5.65,3.87,-0.79,-1.49,-2.44,1012.80
1.533,-0.08,-0.04,-0.15,-6.09,-7.12,3.13,-0.79,-1.49,-2.44,1012.80
1.571,-0.08,-0.04,-0.15,-1.15,-7.84,-0.39,-0.79,-1.49,-2.44,1012.80
1.574,0.29,-0.05,-0.52,-1.15,-7.84,-0.39,-0.79,-1.49,-2.44,1012.80
1.575,0.29,-0.05,-0.52,-1.15,-7.84,-0.39,-1.22,-2.43,-2.98,1012.80
1.576,0.29,-0.05,-0.52,-1.15,-7.84,-0.39,-1.22,-2.43,-2.98,1012.79
1.613,1.24,-0.26,-0.67,-1.15,-7.84,-0.39,-1.22,-2.43,-2.98,1012.79
1.616,1.24,-0.26,-0.67,-1.15,-7.84,-0.39,-1.41,-2.29,-2.50,1012.79
1.618,1.24,-0.26,-0.67,9.17,-10.39,-1.95,-1.41,-2.29,-2.50,1012.79
1.632,1.24,-0.26,-0.67,9.17,-10.39,-1.95,-1.41,-2.29,-2.50,1012.78
1.661,1.30,-0.39,-0.76,9.17,-10.39,-1.95,-1.41,-2.29,-2.50,1012.78
1.663,1.30,-0.39,-0.76,9.17,-10.39,-1.95,-0.71,0.12,-1.47,1012.78
1.664,1.30,-0.39,-0.76,10.00,-11.69,-2.92,-0.71,0.12,-1.47,1012.78
1.7,1.33,0.52,-1.25,10.00,-11.69,-2.92,-0.71,0.12,-1.47,1012.78
1.708,1.33,0.52,-1.25,10.00,-11.69,-2.92,0.33,0.31,-0.20,1012.78
1.71,1.33,0.52,-1.25,10.12,-2.74,-7.56,0.33,0.31,-0.20,1012.78
1.713,1.33,0.52,-1.25,10.12,-2.74,-7.56,0.33,0.31,-0.20,1012.77
1.729,0.59,2.56,-0.83,10.12,-2.74,-7.56,0.33,0.31,-0.20,1012.77
1.731,0.59,2.56,-0.83,10.12,-2.74,-7.56,0.09,1.46,0.69,1012.77
1.731,0.59,2.56,-0.83,2.37,17.11,-3.60,0.09,1.46,0.69,1012.77
1.752,0.59,2.56,-0.83,2.37,17.11,-3.60,0.09,1.46,0.69,1012.77
1.773,-0.36,-0.17,-0.41,2.37,17.11,-3.60,0.09,1.46,0.69,1012.77
1.775,-0.36,-0.17,-0.41,2.37,17.11,-3.60,-1.03,-0.91,-0.48,1012.77
1.776,-0.36,-0.17,-0.41,-6.51,-9.69,0.30,-1.03,-0.91,-0.48,1012.77
1.809,1.58,1.19,-0.43,-6.51,-9.69,0.30,-1.03,-0.91,-0.48,1012.77
1.811,1.58,1.19,-0.43,-6.51,-9.69,0.30,-0.74,-1.24,0.69,1012.77
1.812,1.58,1.19,-0.43,12.29,3.45,0.02,-0.74,-1.24,0.69,1012.77
1.813,1.58,1.19,-0.43,12.29,3.45,0.02,-0.74,-1.24,0.69,1012.77
1.849,0.13,0.91,-0.36,12.29,3.45,0.02,-0.74,-1.24,0.69,1012.77
1.852,0.13,0.91,-0.36,12.29,3.45,0.02,-0.62,0.40,-0.94,1012.77
1.855,0.13,0.91,-0.36,-1.62,0.47,0.49,-0.62,0.40,-0.94,1012.77
1.876,0.13,0.91,-0.36,-1.62,0.47,0.49,-0.62,0.40,-0.94,1012.78
1.889,0.45,0.94,-0.37,-1.62,0.47,0.49,-0.62,0.40,-0.94,1012.78
1.891,0.45,0.94,-0.37,1.70,0.64,0.20,-0.62,0.40,-0.94,1012.78
1.892,0.45,0.94,-0.37,1.70,0.64,0.20,-0.51,0.17,-0.72,1012.78
1.94,0.24,0.86,-0.42,1.70,0.64,0.20,-0.51,0.17,-0.72,1012.78
1.943,0.24,0.86,-0.42,1.70,0.64,0.20,-0.49,0.35,-0.86,1012.78
1.944,0.24,0.86,-0.42,-0.18,-0.32,-0.47,-0.49,0.35,-0.86,1012.78
1.945,0.24,0.86,-0.42,-0.18,-0.32,-0.47,-0.49,0.35,-0.86,1012.77
1.966,0.00,0.86,-0.28,-0.18,-0.32,-0.47,-0.49,0.35,-0.86,1012.77
1.968,0.00,0.86,-0.28,-0.18,-0.32,-0.47,-0.49,0.66,-0.84,1012.77
1.968,0.00,0.86,-0.28,-2.23,-0.46,0.63,-0.49,0.66,-0.84,1012.77
1.991,0.00,0.86,-0.28,-2.23,-0.46,0.63,-0.49,0.66,-0.84,1012.77
2.008,-0.24,0.84,-0.15,-2.23,-0.46,0.63,-0.49,0.66,-0.84,1012.77
2.011,-0.24,0.84,-0.15,-2.23,-0.46,0.63,-0.33,0.52,-0.55,1012.77
2.013,-0.24,0.84,-0.15,-4.44,-0.70,1.72,-0.33,0.52,-0.55,1012.77
2.054,-0.27,0.83,-0.18,-4.44,-0.70,1.72,-0.33,0.52,-0.55,1012.77
2.061,-0.27,0.83,-0.18,-4.44,-0.70,1.72,-0.10,0.02,0.06,1012.77
2.063,-0.27,0.83,-0.18,-4.69,-0.81,1.37,-0.10,0.02,0.06,1012.77
2.065,-0.27,0.83,-0.18,-4.69,-0.81,1.37,-0.10,0.02,0.06,1012.78
2.095,0.12,0.97,-0.38,-4.69,-0.81,1.37,-0.10,0.02,0.06,1012.78
2.097,0.12,0.97,-0.38,-4.69,-0.81,1.37,0.04,-0.66,0.59,1012.78
2.098,0.12,0.97,-0.38,-0.90,0.65,-0.49,0.04,-0.66,0.59,1012.78
2.11,0.12,0.97,-0.38,-0.90,0.65,-0.49,0.04,-0.66,0.59,1012.77
2.126,0.52,1.21,-0.35,-0.90,0.65,-0.49,0.04,-0.66,0.59,1012.77
2.128,0.52,1.21,-0.35,-0.90,0.65,-0.49,0.02,-0.35,0.67,1012.77
2.129,0.52,1.21,-0.35,2.78,3.01,-0.19,0.02,-0.35,0.67,1012.77
2.176,0.53,1.48,-0.43,2.78,3.01,-0.19,0.02,-0.35,0.67,1012.77
2.179,0.53,1.48,-0.43,2.78,3.01,-0.19,0.10,0.81,0.32,1012.77
2.182,0.53,1.48,-0.43,2.55,5.53,-0.98,0.10,0.81,0.32,1012.77
2.183,0.53,1.48,-0.43,2.55,5.53,-0.98,0.10,0.81,0.32,1012.77
2.205,0.20,1.75,-0.22,2.55,5.53,-0.98,0.10,0.81,0.32,1012.77
2.205,0.20,1.75,-0.22,2.55,5.53,-0.98,0.02,1.68,0.11,1012.77
2.206,0.20,1.75,-0.22,-0.91,8.12,0.91,0.02,1.68,0.11,1012.77
2.23,0.20,1.75,-0.22,-0.91,8.12,0.91,0.02,1.68,0.11,1012.78
2.25,-0.94,1.78,0.02,-0.91,8.12,0.91,0.02,1.68,0.11,1012.78
2.252,-0.94,1.78,0.02,-0.91,8.12,0.91,-0.23,0.86,0.79,1012.78
2.253,-0.94,1.78,0.02,-12.22,8.34,2.99,-0.23,0.86,0.79,1012.78
2.283,0.53,1.73,-0.89,-12.22,8.34,2.99,-0.23,0.86,0.79,1012.78
2.284,0.53,1.73,-0.89,-12.22,8.34,2.99,0.92,-0.90,3.30,1012.78
2.285,0.53,1.73,-0.89,1.07,8.30,-5.36,0.92,-0.90,3.30,1012.78
2.289,0.53,1.73,-0.89,1.07,8.30,-5.36,0.92,-0.90,3.30,1012.80
2.328,1.55,1.62,-0.80,1.07,8.30,-5.36,0.92,-0.90,3.30,1012.80
2.33,1.55,1.62,-0.80,1.07,8.30,-5.36,2.16,-0.92,4.63,1012.80
2.331,1.55,1.62,-0.80,9.63,8.23,-3.54,2.16,-0.92,4.63,1012.80
2.377,1.55,1.62,-0.80,9.63,8.23,-3.54,2.16,-0.92,4.63,1012.79
2.38,0.93,1.17,-0.46,9.63,8.23,-3.54,2.16,-0.92,4.63,1012.79
2.383,0.93,1.17,-0.46,9.63,8.23,-3.54,2.04,1.78,3.43,1012.79
2.385,0.93,1.17,-0.46,2.18,4.96,-0.09,2.04,1.78,3.43,1012.79
2.403,0.09,0.73,-0.31,2.18,4.96,-0.09,2.04,1.78,3.43,1012.79
2.406,0.09,0.73,-0.31,2.18,4.96,-0.09,1.11,1.67,2.32,1012.79
2.408,0.09,0.73,-0.31,-6.74,1.51,1.09,1.11,1.67,2.32,1012.79
2.41,0.09,0.73,-0.31,-6.74,1.51,1.09,1.11,1.67,2.32,1012.78
2.449,0.06,0.24,0.03,-6.74,1.51,1.09,1.11,1.67,2.32,1012.78
2.452,0.06,0.24,0.03,-6.74,1.51,1.09,0.35,-0.55,1.46,1012.78
2.454,0.06,0.24,0.03,-7.15,-2.82,4.59,0.35,-0.55,1.46,1012.78
2.488,0.06,0.24,0.03,-7.15,-2.82,4.59,0.35,-0.55,1.46,1012.78
2.492,0.18,0.23,0.18,-7.15,-2.82,4.59,0.35,-0.55,1.46,1012.78
2.494,0.18,0.23,0.18,-7.15,-2.82,4.59,-0.05,-0.81,-0.14,1012.78
2.496,0.18,0.23,0.18,-5.68,-2.88,6.25,-0.05,-0.81,-0.14,1012.78
2.531,-0.01,0.10,0.13,-5.68,-2.88,6.25,-0.05,-0.81,-0.14,1012.78
2.532,-0.01,0.10,0.13,-5.68,-2.88,6.25,-0.56,0.03,-1.88,1012.78
2.533,-0.01,0.10,0.13,-7.06,-4.68,5.53,-0.56,0.03,-1.88,1012.78
2.534,-0.01,0.10,0.13,-7.06,-4.68,5.53,-0.56,0.03,-1.88,1012.79
2.565,-0.02,-0.04,-0.02,-7.06,-4.68,5.53,-0.56,0.03,-1.88,1012.79
2.566,-0.02,-0.04,-0.02,-7.06,-4.68,5.53,-1.07,-0.16,-3.12,1012.79
2.567,-0.02,-0.04,-0.02,-6.25,-6.95,3.72,-1.07,-0.16,-3.12,1012.79
2.59,-0.02,-0.04,-0.02,-6.25,-6.95,3.72,-1.07,-0.16,-3.12,1012.78
2.599,0.31,-0.25,-0.39,-6.25,-6.95,3.72,-1.07,-0.16,-3.12,1012.78
2.601,0.31,-0.25,-0.39,-6.25,-6.95,3.72,-1.52,-1.42,-3.62,1012.78
2.602,0.31,-0.25,-0.39,-1.78,-9.86,0.01,-1.52,-1.42,-3.62,1012.78
2.64,1.13,-0.47,-0.80,-1.78,-9.86,0.01,-1.52,-1.42,-3.62,1012.78
2.643,1.13,-0.47,-0.80,-1.78,-9.86,0.01,-1.39,-2.03,-2.83,1012.78
2.644,1.13,-0.47,-0.80,7.38,-12.48,-4.02,-1.39,-2.03,-2.83,1012.78
2.649,1.13,-0.47,-0.80,7.38,-12.48,-4.02,-1.39,-2.03,-2.83,1012.75
2.679,1.39,-0.72,-0.75,7.38,-12.48,-4.02,-1.39,-2.03,-2.83,1012.75
2.681,1.39,-0.72,-0.75,7.38,-12.48,-4.02,-0.56,-0.27,-1.20,1012.75
2.683,1.39,-0.72,-0.75,10.10,-14.91,-3.62,-0.56,-0.27,-1.20,1012.75
2.71,1.39,-0.72,-0.75,10.10,-14.91,-3.62,-0.56,-0.27,-1.20,1012.72
2.718,0.89,1.26,-0.72,10.10,-14.91,-3.62,-0.56,-0.27,-1.20,1012.72
2.72,0.89,1.26,-0.72,10.10,-14.91,-3.62,0.85,0.41,-0.10,1012.72
2.723,0.89,1.26,-0.72,5.13,4.49,-3.07,0.85,0.41,-0.10,1012.72
2.763,0.34,2.05,-1.39,5.13,4.49,-3.07,0.85,0.41,-0.10,1012.72
2.766,0.34,2.05,-1.39,5.13,4.49,-3.07,0.52,0.92,0.56,1012.72
2.767,0.34,2.05,-1.39,-0.58,12.24,-9.45,0.52,0.92,0.56,1012.72
2.788,0.34,2.05,-1.39,-0.58,12.24,-9.45,0.52,0.92,0.56,1012.73
2.796,0.46,-0.54,0.22,-0.58,12.24,-9.45,0.52,0.92,0.56,1012.73
2.797,0.46,-0.54,0.22,-0.58,12.24,-9.45,-0.91,-1.74,-0.28,1012.73
2.798,0.46,-0.54,0.22,0.97,-13.16,6.17,-0.91,-1.74,-0.28,1012.73
2.83,0.46,-0.54,0.22,0.97,-13.16,6.17,-0.91,-1.74,-0.28,1012.75
2.863,0.46,-0.54,0.22,10.13,7.63,-4.96,-0.91,-1.74,-0.28,1012.75
2.865,1.43,1.58,-0.93,10.13,7.63,-4.96,-0.91,-1.74,-0.28,1012.75
2.866,1.43,1.58,-0.93,10.13,7.63,-4.96,0.23,0.27,0.30,1012.75
2.9,0.02,0.71,-0.46,10.13,7.63,-4.96,0.23,0.27,0.30,1012.75
2.902,0.02,0.71,-0.46,10.13,7.63,-4.96,-0.50,0.41,-1.37,1012.75
2.903,0.02,0.71,-0.46,-3.22,-1.18,-0.62,-0.50,0.41,-1.37,1012.75
2.904,0.02,0.71,-0.46,-3.22,-1.18,-0.62,-0.50,0.41,-1.37,1012.75
2.916,0.63,0.93,-0.43,-3.22,-1.18,-0.62,-0.50,0.41,-1.37,1012.75
2.92,0.63,0.93,-0.43,-3.22,-1.18,-0.62,-0.54,0.11,-0.81,1012.75
2.922,0.63,0.93,-0.43,2.90,0.80,-0.52,-0.54,0.11,-0.81,1012.75
2.951,0.63,0.93,-0.43,2.90,0.80,-0.52,-0.54,0.11,-0.81,1012.73
2.961,0.28,0.84,-0.33,2.90,0.80,-0.52,-0.54,0.11,-0.81,1012.73
2.962,0.28,0.84,-0.33,2.90,0.80,-0.52,-0.62,0.57,-1.19,1012.73
2.963,0.28,0.84,-0.33,-0.22,-0.31,0.21,-0.62,0.57,-1.19,1012.73
2.995,-0.08,0.87,-0.26,-0.22,-0.31,0.21,-0.62,0.57,-1.19,1012.73
2.998,-0.08,0.87,-0.26,-0.22,-0.31,0.21,-0.55,0.71,-1.14,1012.73
2.999,-0.08,0.87,-0.26,-3.34,-0.30,0.65,-0.55,0.71,-1.14,1012.73
3.01,-0.08,0.87,-0.26,-3.34,-0.30,0.65,-0.55,0.71,-1.14,1012.73
3.034,-0.15,0.74,-0.08,-3.34,-0.30,0.65,-0.55,0.71,-1.14,1012.73
3.037,-0.15,0.74,-0.08,-3.34,-0.30,0.65,-0.42,0.42,-0.71,1012.73
3.038,-0.15,0.74,-0.08,-3.82,-1.64,2.16,-0.42,0.42,-0.71,1012.73
3.069,-0.15,0.74,-0.08,-3.82,-1.64,2.16,-0.42,0.42,-0.71,1012.73
3.074,-0.20,0.77,-0.21,-3.82,-1.64,2.16,-0.42,0.42,-0.71,1012.73
3.076,-0.20,0.77,-0.21,-3.82,-1.64,2.16,-0.11,-0.00,-0.16,1012.73
3.078,-0.20,0.77,-0.21,-4.17,-1.30,0.87,-0.11,-0.00,-0.16,1012.73
3.114,-0.04,0.74,-0.15,-4.17,-1.30,0.87,-0.11,-0.00,-0.16,1012.73
3.118,-0.04,0.74,-0.15,-4.17,-1.30,0.87,-0.04,-0.85,0.43,1012.73
3.12,-0.04,0.74,-0.15,-2.59,-1.53,1.50,-0.04,-0.85,0.43,1012.73
3.132,-0.04,0.74,-0.15,-2.59,-1.53,1.50,-0.04,-0.85,0.43,1012.74
3.154,0.26,1.18,-0.36,-2.59,-1.53,1.50,-0.04,-0.85,0.43,1012.74
3.16,0.26,1.18,-0.36,-2.59,-1.53,1.50,0.23,-0.92,0.87,1012.74
3.161,0.26,1.18,-0.36,0.13,2.76,-0.42,0.23,-0.92,0.87,1012.74
3.189,0.26,1.18,-0.36,0.13,2.76,-0.42,0.23,-0.92,0.87,1012.75
3.191,0.58,1.21,-0.49,0.13,2.76,-0.42,0.23,-0.92,0.87,1012.75
3.192,0.58,1.21,-0.49,0.13,2.76,-0.42,0.22,-0.13,0.71,1012.75
3.193,0.58,1.21,-0.49,3.00,3.12,-1.57,0.22,-0.13,0.71,1012.75
3.231,0.67,1.38,-0.56,3.00,3.12,-1.57,0.22,-0.13,0.71,1012.75
3.232,0.67,1.38,-0.56,3.00,3.12,-1.57,-0.03,0.56,0.32,1012.75
3.233,0.67,1.38,-0.56,3.68,4.78,-2.30,-0.03,0.56,0.32,1012.75
3.253,0.67,1.38,-0.56,3.68,4.78,-2.30,-0.03,0.56,0.32,1012.75
3.286,0.27,1.94,-0.36,3.68,4.78,-2.30,-0.03,0.56,0.32,1012.75
3.291,0.27,1.94,-0.36,3.68,4.78,-2.30,-0.44,0.97,-0.15,1012.75
3.295,0.27,1.94,-0.36,-0.31,9.99,-0.59,-0.44,0.97,-0.15,1012.75
3.311,0.27,1.94,-0.36,-0.31,9.99,-0.59,-0.44,0.97,-0.15,1012.76
3.314,-0.64,1.34,0.19,-0.31,9.99,-0.59,-0.44,0.97,-0.15,1012.76
3.316,-0.64,1.34,0.19,-0.31,9.99,-0.59,-0.54,0.73,0.17,1012.76
3.318,-0.64,1.34,0.19,-9.19,4.02,4.39,-0.54,0.73,0.17,1012.76
3.353,0.32,1.76,-0.82,-9.19,4.02,4.39,-0.54,0.73,0.17,1012.76
3.355,0.32,1.76,-0.82,-9.19,4.02,4.39,1.32,-0.22,2.70,1012.76
3.357,0.32,1.76,-0.82,-0.69,8.47,-4.92,1.32,-0.22,2.70,1012.76
3.369,0.32,1.76,-0.82,-0.69,8.47,-4.92,1.32,-0.22,2.70,1012.75
3.393,1.31,1.66,-0.63,-0.69,8.47,-4.92,1.32,-0.22,2.70,1012.75
3.397,1.31,1.66,-0.63,-0.69,8.47,-4.92,2.32,-0.05,4.00,1012.75
3.399,1.31,1.66,-0.63,7.55,8.44,-2.18,2.32,-0.05,4.00,1012.75
3.429,0.75,1.24,-0.45,7.55,8.44,-2.18,2.32,-0.05,4.00,1012.75
3.432,0.75,1.24,-0.45,7.55,8.44,-2.18,2.29,2.41,3.03,1012.75
3.433,0.75,1.24,-0.45,7.55,8.44,-2.18,2.29,2.41,3.03,1012.75
3.434,0.75,1.24,-0.45,0.82,5.27,-0.40,2.29,2.41,3.03,1012.75
3.469,0.09,0.96,-0.35,0.82,5.27,-0.40,2.29,2.41,3.03,1012.75
3.471,0.09,0.96,-0.35,0.82,5.27,-0.40,1.49,2.12,2.37,1012.75
3.472,0.09,0.96,-0.35,-6.48,3.39,0.36,1.49,2.12,2.37,1012.75
3.489,0.09,0.96,-0.35,-6.48,3.39,0.36,1.49,2.12,2.37,1012.73
3.51,0.07,0.46,-0.10,-6.48,3.39,0.36,1.49,2.12,2.37,1012.73
3.512,0.07,0.46,-0.10,-6.48,3.39,0.36,0.72,-0.22,1.82,1012.73
3.514,0.07,0.46,-0.10,-6.99,-0.89,3.06,0.72,-0.22,1.82,1012.73
3.556,0.06,0.28,-0.01,-6.99,-0.89,3.06,0.72,-0.22,1.82,1012.73
3.559,0.06,0.28,-0.01,-6.99,-0.89,3.06,0.34,-1.40,0.53,1012.73
3.561,0.06,0.28,-0.01,-6.81,-2.37,4.29,0.34,-1.40,0.53,1012.73
3.563,0.06,0.28,-0.01,-6.81,-2.37,4.29,0.34,-1.40,0.53,1012.72
3.597,0.04,0.12,0.04,-6.81,-2.37,4.29,0.34,-1.40,0.53,1012.72
3.599,0.04,0.12,0.04,-6.81,-2.37,4.29,-0.14,-1.29,-0.99,1012.72
3.601,0.04,0.12,0.04,-6.43,-4.17,5.03,-0.14,-1.29,-0.99,1012.72
3.608,0.04,0.12,0.04,-6.43,-4.17,5.03,-0.14,-1.29,-0.99,1012.71
3.627,0.11,-0.06,-0.01,-6.43,-4.17,5.03,-0.14,-1.29,-0.99,1012.71
3.632,0.11,-0.06,-0.01,-6.43,-4.17,5.03,-0.60,-0.75,-2.41,1012.71
3.634,0.11,-0.06,-0.01,-5.00,-6.50,4.58,-0.60,-0.75,-2.41,1012.71
3.677,0.18,-0.17,-0.15,-5.00,-6.50,4.58,-0.60,-0.75,-2.41,1012.71
3.68,0.18,-0.17,-0.15,-5.00,-6.50,4.58,-0.94,-0.90,-3.45,1012.71
3.682,0.18,-0.17,-0.15,-3.19,-8.38,3.15,-0.94,-0.90,-3.45,1012.71
3.683,0.18,-0.17,-0.15,-3.19,-8.38,3.15,-0.94,-0.90,-3.45,1012.71
3.713,0.70,-0.34,-0.61,-3.19,-8.38,3.15,-0.94,-0.90,-3.45,1012.71
3.717,0.70,-0.34,-0.61,-3.19,-8.38,3.15,-1.04,-1.87,-3.48,1012.71
3.718,0.70,-0.34,-0.61,3.16,-10.63,-1.35,-1.04,-1.87,-3.48,1012.71
3.728,0.70,-0.34,-0.61,3.16,-10.63,-1.35,-1.04,-1.87,-3.48,1012.70
3.747,1.45,-0.52,-0.65,3.16,-10.63,-1.35,-1.04,-1.87,-3.48,1012.70
3.749,1.45,-0.52,-0.65,3.16,-10.63,-1.35,-0.79,-1.23,-2.26,1012.70
3.75,1.45,-0.52,-0.65,11.20,-12.66,-1.76,-0.79,-1.23,-2.26,1012.70
3.786,1.93,0.44,-0.95,11.20,-12.66,-1.76,-0.79,-1.23,-2.26,1012.70
3.79,1.93,0.44,-0.95,11.20,-12.66,-1.76,0.57,0.66,-0.55,1012.70
3.792,1.93,0.44,-0.95,11.20,-12.66,-1.76,0.57,0.66,-0.55,1012.70
3.795,1.93,0.44,-0.95,15.69,-3.12,-4.57,0.57,0.66,-0.55,1012.70
3.824,0.32,2.60,-0.84,15.69,-3.12,-4.57,0.57,0.66,-0.55,1012.70
3.826,0.32,2.60,-0.84,15.69,-3.12,-4.57,0.44,2.03,0.45,1012.70
3.827,0.32,2.60,-0.84,-0.57,17.89,-3.58,0.44,2.03,0.45,1012.70
3.849,0.32,2.60,-0.84,-0.57,17.89,-3.58,0.44,2.03,0.45,1012.69
3.87,-0.76,-0.08,-0.64,-0.57,17.89,-3.58,0.44,2.03,0.45,1012.69
3.872,-0.76,-0.08,-0.64,-0.57,17.89,-3.58,-0.62,-1.45,-0.85,1012.69
3.874,-0.76,-0.08,-0.64,-10.49,-8.53,-1.57,-0.62,-1.45,-0.85,1012.69
3.924,-0.76,-0.08,-0.64,16.58,1.06,0.94,-0.62,-1.45,-0.85,1012.69
3.93,2.05,0.89,-0.38,16.58,1.06,0.94,-0.62,-1.45,-0.85,1012.69
3.933,2.05,0.89,-0.38,16.58,1.06,0.94,-0.40,-0.59,0.92,1012.69
3.934,2.05,0.89,-0.38,16.58,1.06,0.94,-0.40,-0.59,0.92,1012.71
3.945,2.05,0.89,-0.38,-7.75,2.14,-2.70,-0.40,-0.59,0.92,1012.71
3.947,-0.47,1.03,-0.73,-7.75,2.14,-2.70,-0.40,-0.59,0.92,1012.71
3.948,-0.47,1.03,-0.73,-7.75,2.14,-2.70,-0.20,1.11,-1.21,1012.71
3.974,-0.47,1.03,-0.73,-7.75,2.14,-2.70,-0.20,1.11,-1.21,1012.72
3.984,0.65,0.89,-0.41,-7.75,2.14,-2.70,-0.20,1.11,-1.21,1012.72
3.986,0.65,0.89,-0.41,3.38,0.58,0.30,-0.20,1.11,-1.21,1012.72
3.989,0.65,0.89,-0.41,3.38,0.58,0.30,-0.71,-0.78,-0.35,1012.72
4.022,0.52,0.85,-0.39,3.38,0.58,0.30,-0.71,-0.78,-0.35,1012.72
4.025,0.52,0.85,-0.39,3.38,0.58,0.30,-0.58,0.19,-0.76,1012.72
4.027,0.52,0.85,-0.39,2.32,0.05,0.32,-0.58,0.19,-0.76,1012.72
4.028,0.52,0.85,-0.39,2.32,0.05,0.32,-0.58,0.19,-0.76,1012.72
4.075,0.03,0.90,-0.46,2.32,0.05,0.32,-0.58,0.19,-0.76,1012.72
4.079,0.03,0.90,-0.46,2.32,0.05,0.32,-0.53,0.71,-0.98,1012.72
4.082,0.03,0.90,-0.46,-2.29,0.30,-0.62,-0.53,0.71,-0.98,1012.72
4.092,0.03,0.90,-0.46,-2.29,0.30,-0.62,-0.53,0.71,-0.98,1012.72
4.118,0.07,0.85,-0.30,-2.29,0.30,-0.62,-0.53,0.71,-0.98,1012.72
4.12,0.07,0.85,-0.30,-2.29,0.30,-0.62,-0.63,0.08,-0.77,1012.72
4.121,0.07,0.85,-0.30,-1.56,-0.28,0.74,-0.63,0.08,-0.77,1012.72
4.141,-0.06,0.89,-0.22,-1.56,-0.28,0.74,-0.63,0.08,-0.77,1012.72
4.142,-0.06,0.89,-0.22,-1.56,-0.28,0.74,-0.48,0.25,-0.57,1012.72
4.143,-0.06,0.89,-0.22,-2.63,-0.08,1.28,-0.48,0.25,-0.57,1012.72
4.147,-0.06,0.89,-0.22,-2.63,-0.08,1.28,-0.48,0.25,-0.57,1012.71
4.178,-0.20,0.91,-0.16,-2.63,-0.08,1.28,-0.48,0.25,-0.57,1012.71
4.179,-0.20,0.91,-0.16,-2.63,-0.08,1.28,-0.24,0.23,-0.23,1012.71
4.185,-0.20,0.91,-0.16,-3.88,0.06,1.71,-0.24,0.23,-0.23,1012.71
4.206,-0.20,0.91,-0.16,-3.88,0.06,1.71,-0.24,0.23,-0.23,1012.70
4.218,0.03,0.88,-0.20,-3.88,0.06,1.71,-0.24,0.23,-0.23,1012.70
4.219,0.03,0.88,-0.20,-3.88,0.06,1.71,-0.01,-0.21,0.26,1012.70
4.219,0.03,0.88,-0.20,-1.66,-0.19,1.30,-0.01,-0.21,0.26,1012.70
4.257,0.21,0.99,-0.32,-1.66,-0.19,1.30,-0.01,-0.21,0.26,1012.70
4.258,0.21,0.99,-0.32,-1.66,-0.19,1.30,0.17,-0.02,0.50,1012.70
4.261,0.21,0.99,-0.32,-0.11,0.91,0.16,0.17,-0.02,0.50,1012.70
4.266,0.21,0.99,-0.32,-0.11,0.91,0.16,0.17,-0.02,0.50,1012.68
4.297,0.22,1.05,-0.57,-0.11,0.91,0.16,0.17,-0.02,0.50,1012.68
4.298,0.22,1.05,-0.57,-0.11,0.91,0.16,0.13,0.25,0.43,1012.68
4.298,0.22,1.05,-0.57,-0.16,1.59,-2.23,0.13,0.25,0.43,1012.68
4.326,0.22,1.05,-0.57,-0.16,1.59,-2.23,0.13,0.25,0.43,1012.68
4.338,0.49,1.27,-0.64,-0.16,1.59,-2.23,0.13,0.25,0.43,1012.68
4.339,0.49,1.27,-0.64,-0.16,1.59,-2.23,-0.27,0.12,0.35,1012.68
4.34,0.49,1.27,-0.64,2.28,3.64,-2.91,-0.27,0.12,0.35,1012.68
4.398,0.59,1.57,-0.23,2.28,3.64,-2.91,-0.27,0.12,0.35,1012.68
4.404,0.59,1.57,-0.23,2.28,3.64,-2.91,-0.69,0.46,-0.04,1012.68
4.405,0.59,1.57,-0.23,3.19,6.39,0.79,-0.69,0.46,-0.04,1012.68
4.406,0.59,1.57,-0.23,3.19,6.39,0.79,-0.69,0.46,-0.04,1012.68
4.439,0.59,1.57,-0.23,-2.90,9.01,3.15,-0.69,0.46,-0.04,1012.68
4.441,-0.04,1.86,0.05,-2.90,9.01,3.15,-0.69,0.46,-0.04,1012.68
4.443,-0.04,1.86,0.05,-2.90,9.01,3.15,-0.82,0.67,-0.25,1012.68
4.447,-0.04,1.86,0.05,-2.90,9.01,3.15,-0.82,0.67,-0.25,1012.69
4.457,-0.69,1.23,0.06,-2.90,9.01,3.15,-0.82,0.67,-0.25,1012.69
4.459,-0.69,1.23,0.06,-2.90,9.01,3.15,-0.67,0.78,-0.05,1012.69
4.46,-0.69,1.23,0.06,-9.24,2.72,2.87,-0.67,0.78,-0.05,1012.69
4.497,-0.37,1.27,-0.64,-9.24,2.72,2.87,-0.67,0.78,-0.05,1012.69
4.5,-0.37,1.27,-0.64,-6.38,3.18,-3.92,-0.67,0.78,-0.05,1012.69
4.502,-0.37,1.27,-0.64,-6.38,3.18,-3.92,0.23,0.10,1.05,1012.69
4.529,-0.37,1.27,-0.64,-6.38,3.18,-3.92,0.23,0.10,1.05,1012.70
4.535,0.91,1.28,-0.40,-6.38,3.18,-3.92,0.23,0.10,1.05,1012.70
4.536,0.91,1.28,-0.40,-6.38,3.18,-3.92,0.66,-1.33,3.00,1012.70
4.536,0.91,1.28,-0.40,5.15,3.66,-1.10,0.66,-1.33,3.00,1012.70
4.57,0.91,1.28,-0.40,5.15,3.66,-1.10,0.66,-1.33,3.00,1012.69
4.579,0.84,1.13,-0.28,5.15,3.66,-1.10,0.66,-1.33,3.00,1012.69
4.58,0.84,1.13,-0.28,5.15,3.66,-1.10,1.30,0.24,2.79,1012.69
4.583,0.84,1.13,-0.28,3.41,2.78,0.51,1.30,0.24,2.79,1012.69
4.614,0.59,1.02,-0.46,3.41,2.78,0.51,1.30,0.24,2.79,1012.69
4.616,0.59,1.02,-0.46,3.41,2.78,0.51,1.48,2.34,2.47,1012.69
4.617,0.59,1.02,-0.46,-0.09,2.35,-1.34,1.48,2.34,2.47,1012.69
4.627,0.59,1.02,-0.46,-0.09,2.35,-1.34,1.48,2.34,2.47,1012.67
4.654,0.20,0.75,-0.33,-0.09,2.35,-1.34,1.48,2.34,2.47,1012.67
4.657,0.20,0.75,-0.33,-0.09,2.35,-1.34,0.87,1.67,2.16,1012.67
4.659,0.20,0.75,-0.33,-4.72,0.37,-0.20,0.87,1.67,2.16,1012.67
4.69,0.20,0.75,-0.33,-4.72,0.37,-0.20,0.87,1.67,2.16,1012.67
4.694,0.24,0.46,-0.23,-4.72,0.37,-0.20,0.87,1.67,2.16,1012.67
4.695,0.24,0.46,-0.23,-4.72,0.37,-0.20,0.46,-0.32,1.94,1012.67
4.695,0.24,0.46,-0.23,-4.67,-1.87,0.94,0.46,-0.32,1.94,1012.67
4.733,0.33,0.38,-0.19,-4.67,-1.87,0.94,0.46,-0.32,1.94,1012.67
4.735,0.33,0.38,-0.19,-4.67,-1.87,0.94,0.40,-1.47,1.08,1012.67
4.735,0.33,0.38,-0.19,-3.78,-2.33,1.82,0.40,-1.47,1.08,1012.67
4.747,0.33,0.38,-0.19,-3.78,-2.33,1.82,0.40,-1.47,1.08,1012.66
4.773,0.31,0.20,-0.14,-3.78,-2.33,1.82,0.40,-1.47,1.08,1012.66
4.777,0.31,0.20,-0.14,-3.78,-2.33,1.82,0.29,-1.23,-0.17,1012.66
4.779,0.31,0.20,-0.14,-3.69,-4.02,2.66,0.29,-1.23,-0.17,1012.66
4.806,0.31,0.20,-0.14,-3.69,-4.02,2.66,0.29,-1.23,-0.17,1012.67
4.812,0.09,0.03,-0.24,-3.69,-4.02,2.66,0.29,-1.23,-0.17,1012.67
4.813,0.09,0.03,-0.24,-3.69,-4.02,2.66,0.04,-0.79,-1.38,1012.67
4.814,0.09,0.03,-0.24,-5.26,-5.90,1.95,0.04,-0.79,-1.38,1012.67
4.852,0.09,-0.06,-0.33,-5.26,-5.90,1.95,0.04,-0.79,-1.38,1012.67
4.855,0.09,-0.06,-0.33,-5.26,-5.90,1.95,-0.23,-1.58,-2.34,1012.67
4.857,0.09,-0.06,-0.33,-4.37,-7.19,1.31,-0.23,-1.58,-2.34,1012.67
4.874,0.09,-0.06,-0.33,-4.37,-7.19,1.31,-0.23,-1.58,-2.34,1012.66
4.916,0.54,-0.09,-0.35,-4.37,-7.19,1.31,-0.23,-1.58,-2.34,1012.66
4.919,0.54,-0.09,-0.35,-4.37,-7.19,1.31,-0.40,-1.89,-2.92,1012.66
4.921,0.54,-0.09,-0.35,1.20,-7.97,1.29,-0.40,-1.89,-2.92,1012.66
4.927,0.54,-0.09,-0.35,1.20,-7.97,1.29,-0.40,-1.89,-2.92,1012.66
4.93,0.79,-0.08,-0.45,1.20,-7.97,1.29,-0.40,-1.89,-2.92,1012.66
4.932,0.79,-0.08,-0.45,1.20,-7.97,1.29,-0.26,-0.65,-2.97,1012.66
4.933,0.79,-0.08,-0.45,4.51,-8.26,0.32,-0.26,-0.65,-2.97,1012.66
4.971,0.86,-0.01,-0.50,4.51,-8.26,0.32,-0.26,-0.65,-2.97,1012.66
4.978,0.86,-0.01,-0.50,5.72,-7.70,-0.21,-0.26,-0.65,-2.97,1012.66
4.98,0.86,-0.01,-0.50,5.72,-7.70,-0.21,0.05,0.39,-2.23,1012.66
4.986,0.86,-0.01,-0.50,5.72,-7.70,-0.21,0.05,0.39,-2.23,1012.66
5.009,1.59,1.56,-0.81,5.72,-7.70,-0.21,0.05,0.39,-2.23,1012.66
5.012,1.59,1.56,-0.81,5.72,-7.70,-0.21,0.72,0.66,-0.75,1012.66
5.012,1.59,1.56,-0.81,12.76,7.62,-3.02,0.72,0.66,-0.75,1012.66
5.049,1.59,1.56,-0.81,12.76,7.62,-3.02,0.72,0.66,-0.75,1012.65
5.052,0.30,2.09,-0.30,12.76,7.62,-3.02,0.72,0.66,-0.75,1012.65
5.054,0.30,2.09,-0.30,12.76,7.62,-3.02,-0.08,1.36,1.42,1012.65
5.056,0.30,2.09,-0.30,-0.55,12.82,1.73,-0.08,1.36,1.42,1012.65
5.089,-1.15,-0.79,-0.84,-0.55,12.82,1.73,-0.08,1.36,1.42,1012.65
5.09,-1.15,-0.79,-0.84,-13.82,-15.31,-3.32,-0.08,1.36,1.42,1012.65
5.093,-1.15,-0.79,-0.84,-13.82,-15.31,-3.32,-0.18,-1.75,-1.16,1012.65
5.115,-1.15,-0.79,-0.84,-13.82,-15.31,-3.32,-0.18,-1.75,-1.16,1012.65
5.127,2.89,1.51,-0.62,-13.82,-15.31,-3.32,-0.18,-1.75,-1.16,1012.65
5.129,2.89,1.51,-0.62,-13.82,-15.31,-3.32,-0.15,-0.20,1.86,1012.65
5.13,2.89,1.51,-0.62,24.86,7.26,-1.17,-0.15,-0.20,1.86,1012.65
5.166,-0.97,0.72,-0.62,24.86,7.26,-1.17,-0.15,-0.20,1.86,1012.65
5.169,-0.97,0.72,-0.62,24.86,7.26,-1.17,-0.43,1.10,-1.58,1012.65
5.172,-0.97,0.72,-0.62,24.86,7.26,-1.17,-0.43,1.10,-1.58,1012.64
5.174,-0.97,0.72,-0.62,-12.57,-0.76,-1.42,-0.43,1.10,-1.58,1012.64
5.207,0.80,0.97,-0.53,-12.57,-0.76,-1.42,-0.43,1.10,-1.58,1012.64
5.21,0.80,0.97,-0.53,-12.57,-0.76,-1.42,-0.66,-1.17,0.15,1012.64
5.212,0.80,0.97,-0.53,4.93,1.51,-0.59,-0.66,-1.17,0.15,1012.64
5.226,0.80,0.97,-0.53,4.93,1.51,-0.59,-0.66,-1.17,0.15,1012.64
5.247,0.82,0.78,-0.32,4.93,1.51,-0.59,-0.66,-1.17,0.15,1012.64
5.25,0.82,0.78,-0.32,4.93,1.51,-0.59,-0.61,0.12,-0.60,1012.64
5.252,0.82,0.78,-0.32,5.21,-0.51,1.27,-0.61,0.12,-0.60,1012.64
5.288,-0.09,0.93,-0.55,5.21,-0.51,1.27,-0.61,0.12,-0.60,1012.64
5.289,-0.09,0.93,-0.55,5.21,-0.51,1.27,-0.40,0.98,-1.14,1012.64
5.29,-0.09,0.93,-0.55,-3.49,0.83,-1.21,-0.40,0.98,-1.14,1012.64
5.291,-0.09,0.93,-0.55,-3.49,0.83,-1.21,-0.40,0.98,-1.14,1012.64
5.324,0.21,0.84,-0.38,-3.49,0.83,-1.21,-0.40,0.98,-1.14,1012.64
5.326,0.21,0.84,-0.38,-3.49,0.83,-1.21,-0.61,0.11,-0.81,1012.64
5.326,0.21,0.84,-0.38,-0.23,-0.30,0.22,-0.61,0.11,-0.81,1012.64
5.346,0.21,0.84,-0.38,-0.23,-0.30,0.22,-0.61,0.11,-0.81,1012.65
5.367,0.07,0.84,-0.35,-0.23,-0.30,0.22,-0.61,0.11,-0.81,1012.65
5.371,0.07,0.84,-0.35,-0.23,-0.30,0.22,-0.59,0.29,-0.78,1012.65
5.375,0.07,0.84,-0.35,-1.36,-0.44,0.34,-0.59,0.29,-0.78,1012.65
5.404,-0.11,0.89,-0.26,-1.36,-0.44,0.34,-0.59,0.29,-0.78,1012.65
5.406,-0.11,0.89,-0.26,-1.36,-0.44,0.34,-0.51,0.39,-0.63,1012.65
5.406,-0.11,0.89,-0.26,-2.95,-0.04,0.91,-0.51,0.39,-0.63,1012.65
5.407,-0.11,0.89,-0.26,-2.95,-0.04,0.91,-0.51,0.39,-0.63,1012.66
5.444,-0.14,0.94,-0.15,-2.95,-0.04,0.91,-0.51,0.39,-0.63,1012.66
5.445,-0.14,0.94,-0.15,-2.95,-0.04,0.91,-0.36,-0.08,-0.28,1012.66
5.445,-0.14,0.94,-0.15,-3.11,0.36,1.85,-0.36,-0.08,-0.28,1012.66
5.465,-0.14,0.94,-0.15,-3.11,0.36,1.85,-0.36,-0.08,-0.28,1012.65
5.484,-0.04,0.94,-0.16,-3.11,0.36,1.85,-0.36,-0.08,-0.28,1012.65
5.487,-0.04,0.94,-0.16,-3.11,0.36,1.85,-0.08,-0.17,0.14,1012.65
5.488,-0.04,0.94,-0.16,-2.11,0.37,1.75,-0.08,-0.17,0.14,1012.65
5.523,0.09,0.92,-0.27,-2.11,0.37,1.75,-0.08,-0.17,0.14,1012.65
5.527,0.09,0.92,-0.27,-2.11,0.37,1.75,0.20,0.15,0.44,1012.65
5.528,0.09,0.92,-0.27,-1.00,0.17,0.67,0.20,0.15,0.44,1012.65
5.529,0.09,0.92,-0.27,-1.00,0.17,0.67,0.20,0.15,0.44,1012.64
5.574,0.15,0.91,-0.31,-1.00,0.17,0.67,0.20,0.15,0.44,1012.64
5.577,0.15,0.91,-0.31,-1.00,0.17,0.67,0.30,0.21,0.60,1012.64
5.579,0.15,0.91,-0.31,-0.64,0.24,0.45,0.30,0.21,0.60,1012.64
5.586,0.15,0.91,-0.31,-0.64,0.24,0.45,0.30,0.21,0.60,1012.64
5.614,0.22,0.96,-0.45,-0.64,0.24,0.45,0.30,0.21,0.60,1012.64
5.618,0.22,0.96,-0.45,-0.64,0.24,0.45,0.33,0.19,0.66,1012.64
5.623,0.22,0.96,-0.45,-0.21,0.73,-0.82,0.33,0.19,0.66,1012.64
5.642,0.35,0.99,-0.49,-0.21,0.73,-0.82,0.33,0.19,0.66,1012.64
5.645,0.35,0.99,-0.49,-0.21,0.73,-0.82,0.18,0.22,0.59,1012.64
5.646,0.35,0.99,-0.49,0.89,1.16,-1.20,0.18,0.22,0.59,1012.64
5.647,0.35,0.99,-0.49,0.89,1.16,-1.20,0.18,0.22,0.59,1012.64
5.685,0.39,1.09,-0.54,0.89,1.16,-1.20,0.18,0.22,0.59,1012.64
5.687,0.39,1.09,-0.54,0.89,1.16,-1.20,-0.03,0.33,0.41,1012.64
5.688,0.39,1.09,-0.54,1.08,2.15,-1.67,-0.03,0.33,0.41,1012.64
5.732,0.39,1.09,-0.54,1.08,2.15,-1.67,-0.03,0.33,0.41,1012.63
5.735,0.68,1.39,-0.63,1.08,2.15,-1.67,-0.03,0.33,0.41,1012.63
5.738,0.68,1.39,-0.63,1.08,2.15,-1.67,-0.36,0.24,0.19,1012.63
5.74,0.68,1.39,-0.63,3.71,4.91,-2.67,-0.36,0.24,0.19,1012.63
5.779,0.57,1.65,-0.24,3.71,4.91,-2.67,-0.36,0.24,0.19,1012.63
5.782,0.57,1.65,-0.24,3.71,4.91,-2.67,-0.86,0.32,-0.33,1012.63
5.784,0.57,1.65,-0.24,2.70,7.23,0.76,-0.86,0.32,-0.33,1012.63
5.785,0.57,1.65,-0.24,2.70,7.23,0.76,-0.86,0.32,-0.33,1012.64
5.821,-0.16,1.30,-0.02,2.70,7.23,0.76,-0.86,0.32,-0.33,1012.64
5.824,-0.16,1.30,-0.02,2.70,7.23,0.76,-0.79,0.99,-0.85,1012.64
5.825,-0.16,1.30,-0.02,-4.24,3.57,2.56,-0.79,0.99,-0.85,1012.64
5.826,-0.16,1.30,-0.02,-4.24,3.57,2.56,-0.79,0.99,-0.85,1012.64
5.842,-0.16,1.30,-0.02,-9.15,-1.24,-0.24,-0.79,0.99,-0.85,1012.64
5.844,-0.66,0.81,-0.29,-9.15,-1.24,-0.24,-0.79,0.99,-0.85,1012.64
5.845,-0.66,0.81,-0.29,-9.15,-1.24,-0.24,-0.18,0.77,0.17,1012.64
5.888,1.00,1.16,-0.35,-9.15,-1.24,-0.24,-0.18,0.77,0.17,1012.64
5.892,1.00,1.16,-0.35,-9.15,-1.24,-0.24,1.02,-0.43,2.81,1012.64
5.894,1.00,1.16,-0.35,6.06,2.57,-0.43,1.02,-0.43,2.81,1012.64
5.896,1.00,1.16,-0.35,6.06,2.57,-0.43,1.02,-0.43,2.81,1012.65
5.917,0.73,1.11,-0.26,6.06,2.57,-0.43,1.02,-0.43,2.81,1012.65
5.919,0.73,1.11,-0.26,6.06,2.57,-0.43,1.53,1.32,2.07,1012.65
5.919,0.73,1.11,-0.26,2.56,2.58,0.68,1.53,1.32,2.07,1012.65
5.946,0.73,1.11,-0.26,2.56,2.58,0.68,1.53,1.32,2.07,1012.64
5.959,0.13,0.94,-0.36,2.56,2.58,0.68,1.53,1.32,2.07,1012.64
5.961,0.13,0.94,-0.36,2.56,2.58,0.68,1.33,2.68,1.63,1012.64
5.962,0.13,0.94,-0.36,-4.09,1.38,-0.41,1.33,2.68,1.63,1012.64
6.01,0.25,0.75,-0.19,-4.09,1.38,-0.41,1.33,2.68,1.63,1012.64
6.014,0.25,0.75,-0.19,-4.09,1.38,-0.41,0.93,1.85,1.85,1012.64
6.016,0.25,0.75,-0.19,-3.64,0.12,1.09,0.93,1.85,1.85,1012.64
6.018,0.25,0.75,-0.19,-3.64,0.12,1.09,0.93,1.85,1.85,1012.62
6.047,0.12,0.50,-0.11,-3.64,0.12,1.09,0.93,1.85,1.85,1012.62
6.05,0.12,0.50,-0.11,-3.64,0.12,1.09,0.57,0.50,1.36,1012.62
6.052,0.12,0.50,-0.11,-5.32,-1.93,1.90,0.57,0.50,1.36,1012.62
6.065,0.12,0.50,-0.11,-5.32,-1.93,1.90,0.57,0.50,1.36,1012.62
6.088,0.12,0.30,-0.12,-5.32,-1.93,1.90,0.57,0.50,1.36,1012.62
6.094,0.12,0.30,-0.12,-5.32,-1.93,1.90,0.17,-0.82,0.41,1012.62
6.095,0.12,0.30,-0.12,-5.20,-3.66,2.06,0.17,-0.82,0.41,1012.62
6.123,0.24,0.32,-0.14,-5.20,-3.66,2.06,0.17,-0.82,0.41,1012.62
6.127,0.24,0.32,-0.14,-5.20,-3.66,2.06,-0.36,-0.99,-0.91,1012.62
6.13,0.24,0.32,-0.14,-3.58,-3.72,1.98,-0.36,-0.99,-0.91,1012.62
6.131,0.24,0.32,-0.14,-3.58,-3.72,1.98,-0.36,-0.99,-0.91,1012.62
6.168,0.33,0.30,-0.16,-3.58,-3.72,1.98,-0.36,-0.99,-0.91,1012.62
6.171,0.33,0.30,-0.16,-3.58,-3.72,1.98,-0.95,-0.41,-2.19,1012.62
6.173,0.33,0.30,-0.16,-2.05,-4.43,1.58,-0.95,-0.41,-2.19,1012.62
6.2,0.33,0.30,-0.16,-2.05,-4.43,1.58,-0.95,-0.41,-2.19,1012.62
6.204,0.34,0.47,-0.29,-2.05,-4.43,1.58,-0.95,-0.41,-2.19,1012.62
6.206,0.34,0.47,-0.29,-2.05,-4.43,1.58,-1.31,-0.17,-3.08,1012.62
6.208,0.34,0.47,-0.29,-0.95,-3.41,-0.13,-1.31,-0.17,-3.08,1012.62
6.235,0.32,0.74,-0.49,-0.95,-3.41,-0.13,-1.31,-0.17,-3.08,1012.62
6.238,0.32,0.74,-0.49,-0.95,-3.41,-0.13,-1.68,-1.06,-3.31,1012.62
6.24,0.32,0.74,-0.49,0.09,-1.40,-2.43,-1.68,-1.06,-3.31,1012.62
6.247,0.32,0.74,-0.49,0.09,-1.40,-2.43,-1.68,-1.06,-3.31,1012.61
6.288,0.57,0.91,-0.65,0.09,-1.40,-2.43,-1.68,-1.06,-3.31,1012.61
6.294,0.57,0.91,-0.65,0.09,-1.40,-2.43,-2.12,-2.43,-2.30,1012.61
6.295,0.57,0.91,-0.65,3.49,-0.14,-4.43,-2.12,-2.43,-2.30,1012.61
6.305,0.57,0.91,-0.65,3.49,-0.14,-4.43,-2.12,-2.43,-2.30,1012.62
6.33,0.81,0.73,-0.56,3.49,-0.14,-4.43,-2.12,-2.43,-2.30,1012.62
6.333,0.81,0.73,-0.56,3.49,-0.14,-4.43,-2.17,-2.25,-1.16,1012.62
6.334,0.81,0.73,-0.56,6.34,-2.08,-4.05,-2.17,-2.25,-1.16,1012.62
6.353,0.83,0.68,-0.74,6.34,-2.08,-4.05,-2.17,-2.25,-1.16,1012.62
6.354,0.83,0.68,-0.74,6.34,-2.08,-4.05,-1.13,-1.49,-0.55,1012.62
6.355,0.83,0.68,-0.74,6.67,-2.62,-6.04,-1.13,-1.49,-0.55,1012.62
6.366,0.83,0.68,-0.74,6.67,-2.62,-6.04,-1.13,-1.49,-0.55,1012.62
6.398,0.83,0.68,-0.74,8.70,7.52,7.67,-1.13,-1.49,-0.55,1012.62
6.402,1.09,1.73,0.71,8.70,7.52,7.67,-1.13,-1.49,-0.55,1012.62
6.404,1.09,1.73,0.71,8.70,7.52,7.67,-0.77,0.50,0.83,1012.62
6.425,1.09,1.73,0.71,8.70,7.52,7.67,-0.77,0.50,0.83,1012.62
6.431,-1.41,0.98,-0.25,8.70,7.52,7.67,-0.77,0.50,0.83,1012.62
6.432,-1.41,0.98,-0.25,8.70,7.52,7.67,-0.49,0.89,-0.81,1012.62
6.432,-1.41,0.98,-0.25,-15.20,0.12,-1.90,-0.49,0.89,-0.81,1012.62
6.474,0.80,0.79,-0.03,-15.20,0.12,-1.90,-0.49,0.89,-0.81,1012.62
6.477,0.80,0.79,-0.03,-15.20,0.12,-1.90,-0.62,-2.22,1.04,1012.62
6.478,0.80,0.79,-0.03,6.00,-1.65,0.16,-0.62,-2.22,1.04,1012.62
6.484,0.80,0.79,-0.03,6.00,-1.65,0.16,-0.62,-2.22,1.04,1012.62
6.517,0.81,0.89,0.10,6.00,-1.65,0.16,-0.62,-2.22,1.04,1012.62
6.52,0.81,0.89,0.10,6.00,-1.65,0.16,-0.37,0.44,0.44,1012.62
6.524,0.81,0.89,0.10,5.83,-0.67,1.17,-0.37,0.44,0.44,1012.62
6.546,0.81,0.89,0.10,5.83,-0.67,1.17,-0.37,0.44,0.44,1012.64
6.551,-0.66,1.18,-0.15,5.83,-0.67,1.17,-0.37,0.44,0.44,1012.64
6.553,-0.66,1.18,-0.15,5.83,-0.67,1.17,-0.13,1.86,-0.27,1012.64
6.555,-0.66,1.18,-0.15,-8.34,2.12,-1.41,-0.13,1.86,-0.27,1012.64
6.592,0.20,0.92,0.14,-8.34,2.12,-1.41,-0.13,1.86,-0.27,1012.64
6.594,0.20,0.92,0.14,-8.34,2.12,-1.41,-0.52,-0.81,0.66,1012.64
6.595,0.20,0.92,0.14,-0.19,-0.35,1.24,-0.52,-0.81,0.66,1012.64
6.604,0.20,0.92,0.14,-0.19,-0.35,1.24,-0.52,-0.81,0.66,1012.64
6.631,0.58,0.95,0.18,-0.19,-0.35,1.24,-0.52,-0.81,0.66,1012.64
6.633,0.58,0.95,0.18,-0.19,-0.35,1.24,-0.30,-0.53,0.66,1012.64
6.633,0.58,0.95,0.18,3.25,-0.05,1.59,-0.30,-0.53,0.66,1012.64
6.665,0.58,0.95,0.18,3.25,-0.05,1.59,-0.30,-0.53,0.66,1012.63
6.67,0.19,0.94,0.12,3.25,-0.05,1.59,-0.30,-0.53,0.66,1012.63
6.673,0.19,0.94,0.12,3.25,-0.05,1.59,0.00,0.87,0.26,1012.63
6.675,0.19,0.94,0.12,-0.63,-0.12,0.89,0.00,0.87,0.26,1012.63
6.709,0.23,0.94,0.11,-0.63,-0.12,0.89,0.00,0.87,0.26,1012.63
6.712,0.23,0.94,0.11,-0.63,-0.12,0.89,0.09,0.53,0.29,1012.63
6.714,0.23,0.94,0.11,-0.38,-0.01,0.71,0.09,0.53,0.29,1012.63
6.732,0.23,0.94,0.11,-0.38,-0.01,0.71,0.09,0.53,0.29,1012.62
6.748,0.42,0.91,0.09,-0.38,-0.01,0.71,0.09,0.53,0.29,1012.62
6.75,0.42,0.91,0.09,-0.38,-0.01,0.71,0.07,-0.07,0.27,1012.62
6.75,0.42,0.91,0.09,1.36,-0.33,0.54,0.07,-0.07,0.27,1012.62
6.79,0.42,0.91,0.09,-0.18,0.27,0.06,0.07,-0.07,0.27,1012.62
6.792,0.42,0.91,0.09,-0.18,0.27,0.06,0.07,-0.07,0.27,1012.62
6.794,0.27,0.97,0.04,-0.18,0.27,0.06,0.07,-0.07,0.27,1012.62
6.795,0.27,0.97,0.04,-0.18,0.27,0.06,0.13,0.39,0.18,1012.62
6.827,0.26,0.99,0.02,-0.18,0.27,0.06,0.13,0.39,0.18,1012.62
6.829,0.26,0.99,0.02,-0.18,0.27,0.06,0.12,0.40,0.17,1012.62
6.831,0.26,0.99,0.02,-0.26,0.49,-0.14,0.12,0.40,0.17,1012.62
6.844,0.26,0.99,0.02,-0.26,0.49,-0.14,0.12,0.40,0.17,1012.64
6.868,0.34,0.93,0.06,-0.26,0.49,-0.14,0.12,0.40,0.17,1012.64
6.87,0.34,0.93,0.06,-0.26,0.49,-0.14,0.10,0.25,0.11,1012.64
6.872,0.34,0.93,0.06,0.47,-0.05,0.30,0.10,0.25,0.11,1012.64
6.912,0.34,0.93,0.06,-0.35,0.06,0.22,0.10,0.25,0.11,1012.64
6.914,0.34,0.93,0.06,-0.35,0.06,0.22,0.10,0.25,0.11,1012.64
6.915,0.26,0.94,0.05,-0.35,0.06,0.22,0.10,0.25,0.11,1012.64
6.915,0.26,0.94,0.05,-0.35,0.06,0.22,0.10,0.35,0.08,1012.64
6.969,0.28,0.95,0.06,-0.35,0.06,0.22,0.10,0.35,0.08,1012.64
6.971,0.28,0.95,0.06,-0.35,0.06,0.22,0.08,0.19,0.11,1012.64
6.972,0.28,0.95,0.06,-0.17,0.15,0.27,0.08,0.19,0.11,1012.64
6.974,0.28,0.95,0.06,-0.17,0.15,0.27,0.08,0.19,0.11,1012.64
6.985,0.29,0.94,0.05,-0.17,0.15,0.27,0.08,0.19,0.11,1012.64
6.987,0.29,0.94,0.05,-0.17,0.15,0.27,0.09,0.18,0.12,1012.64
6.989,0.29,0.94,0.05,-0.17,0.01,0.22,0.09,0.18,0.12,1012.64
7.028,0.31,0.95,0.03,-0.17,0.01,0.22,0.09,0.18,0.12,1012.64
7.032,0.31,0.95,0.03,-0.17,0.01,0.22,0.09,0.12,0.11,1012.64
7.034,0.31,0.95,0.03,-0.17,0.01,0.22,0.09,0.12,0.11,1012.64
7.037,0.31,0.95,0.03,-0.02,0.12,0.04,0.09,0.12,0.11,1012.64
7.064,0.34,0.94,0.05,-0.02,0.12,0.04,0.09,0.12,0.11,1012.64
7.067,0.34,0.94,0.05,-0.02,0.12,0.04,0.07,0.10,0.07,1012.64
7.069,0.34,0.94,0.05,0.28,0.03,0.25,0.07,0.10,0.07,1012.64
7.094,0.34,0.94,0.05,0.28,0.03,0.25,0.07,0.10,0.07,1012.64
7.107,0.29,0.94,0.05,0.28,0.03,0.25,0.07,0.10,0.07,1012.64
7.109,0.29,0.94,0.05,0.28,0.03,0.25,0.07,0.19,0.05,1012.64
7.111,0.29,0.94,0.05,-0.26,0.06,0.22,0.07,0.19,0.05,1012.64
7.144,0.28,0.95,0.03,-0.26,0.06,0.22,0.07,0.19,0.05,1012.64
7.148,0.28,0.95,0.03,-0.26,0.06,0.22,0.05,0.04,0.06,1012.64
7.149,0.28,0.95,0.03,-0.36,0.15,0.04,0.05,0.04,0.06,1012.64
7.15,0.28,0.95,0.03,-0.36,0.15,0.04,0.05,0.04,0.06,1012.65
7.183,0.33,0.94,0.03,-0.36,0.15,0.04,0.05,0.04,0.06,1012.65
7.184,0.33,0.94,0.03,-0.36,0.15,0.04,0.04,0.01,0.06,1012.65
7.185,0.33,0.94,0.03,0.09,0.07,0.02,0.04,0.01,0.06,1012.65
7.203,0.33,0.94,0.03,0.09,0.07,0.02,0.04,0.01,0.06,1012.66
7.221,0.29,0.93,0.04,0.09,0.07,0.02,0.04,0.01,0.06,1012.66
7.222,0.29,0.93,0.04,0.09,0.07,0.02,0.03,0.07,0.05,1012.66
7.222,0.29,0.93,0.04,-0.32,0.02,0.20,0.03,0.07,0.05,1012.66
7.261,0.30,0.94,0.05,-0.32,0.02,0.20,0.03,0.07,0.05,1012.66
7.263,0.30,0.94,0.05,-0.32,0.02,0.20,0.01,-0.08,0.06,1012.66
7.263,0.30,0.94,0.05,-0.32,0.02,0.20,0.01,-0.08,0.06,1012.65
7.264,0.30,0.94,0.05,-0.18,0.05,0.22,0.01,-0.08,0.06,1012.65
7.3,0.30,0.95,0.02,-0.18,0.05,0.22,0.01,-0.08,0.06,1012.65
7.301,0.30,0.95,0.02,-0.18,0.05,0.22,0.02,-0.09,0.08,1012.65
7.302,0.30,0.95,0.02,-0.18,0.24,0.02,0.02,-0.09,0.08,1012.65
7.324,0.30,0.95,0.02,-0.18,0.24,0.02,0.02,-0.09,0.08,1012.64
7.341,0.30,0.93,0.02,-0.18,0.24,0.02,0.02,-0.09,0.08,1012.64
7.342,0.30,0.93,0.02,-0.18,0.24,0.02,-0.00,-0.03,0.09,1012.64
7.343,0.30,0.93,0.02,-0.29,0.04,-0.03,-0.00,-0.03,0.09,1012.64
7.38,0.35,0.94,0.03,-0.29,0.04,-0.03,-0.00,-0.03,0.09,1012.64
7.381,0.35,0.94,0.03,-0.29,0.04,-0.03,-0.01,-0.17,0.08,1012.64
7.382,0.35,0.94,0.03,0.16,0.08,0.09,-0.01,-0.17,0.08,1012.64
7.388,0.35,0.94,0.03,0.16,0.08,0.09,-0.01,-0.17,0.08,1012.63
