time,gFx,gFy,gFz,ax,ay,az,wx,wy,wz,P
0.002,0.23,0.97,-0.15,0.20,0.09,0.13,0.03,-0.08,0.04,976.57
0.009,0.30,0.93,-0.16,0.20,0.09,0.13,0.03,-0.08,0.04,976.57
0.01,0.30,0.93,-0.16,0.20,0.09,0.13,0.02,-0.14,0.08,976.57
0.011,0.30,0.93,-0.16,-0.29,0.12,-0.16,0.02,-0.14,0.08,976.57
0.015,0.30,0.93,-0.16,-0.29,0.12,-0.16,0.02,-0.14,0.08,976.57
0.032,0.28,0.96,-0.15,-0.29,0.12,-0.16,0.02,-0.14,0.08,976.57
0.049,0.15,0.98,-0.14,-0.29,0.12,-0.16,0.02,-0.14,0.08,976.57
0.051,0.15,0.98,-0.14,-0.29,0.12,-0.16,0.00,0.01,0.06,976.57
0.051,0.15,0.98,-0.14,-0.07,0.04,-0.22,0.00,0.01,0.06,976.57
0.069,0.26,0.96,-0.13,-0.07,0.04,-0.22,0.00,0.01,0.06,976.57
0.075,0.26,0.96,-0.13,-0.07,0.04,-0.22,0.00,0.01,0.06,976.57
0.089,0.30,0.95,-0.14,-0.07,0.04,-0.22,0.00,0.01,0.06,976.57
0.09,0.30,0.95,-0.14,-0.07,0.04,-0.22,-0.00,0.04,0.05,976.57
0.091,0.30,0.95,-0.14,-0.08,0.04,-0.22,-0.00,0.04,0.05,976.57
0.113,0.23,0.96,-0.13,-0.08,0.04,-0.22,-0.00,0.04,0.05,976.57
0.128,0.23,0.96,-0.14,-0.08,0.04,-0.22,-0.00,0.04,0.05,976.57
0.129,0.23,0.96,-0.14,-0.08,0.04,-0.22,0.00,0.07,0.05,976.57
0.13,0.23,0.96,-0.14,0.10,0.05,-0.06,0.00,0.07,0.05,976.57
0.135,0.23,0.96,-0.14,0.10,0.05,-0.06,0.00,0.07,0.05,976.56
0.148,0.27,0.96,-0.14,0.10,0.05,-0.06,0.00,0.07,0.05,976.56
0.168,0.26,0.94,-0.15,0.10,0.05,-0.06,0.00,0.07,0.05,976.56
0.169,0.26,0.94,-0.15,0.10,0.05,-0.06,-0.01,0.04,0.03,976.56
0.17,0.26,0.94,-0.15,0.02,0.02,-0.19,-0.01,0.04,0.03,976.56
0.189,0.23,0.95,-0.12,0.02,0.02,-0.19,-0.01,0.04,0.03,976.56
0.195,0.23,0.95,-0.12,0.02,0.02,-0.19,-0.01,0.04,0.03,976.56
0.208,0.21,0.95,-0.11,0.02,0.02,-0.19,-0.01,0.04,0.03,976.56
0.21,0.21,0.95,-0.11,0.01,0.02,-0.19,-0.01,0.04,0.03,976.56
0.211,0.21,0.95,-0.11,0.01,0.02,-0.19,-0.02,0.05,0.01,976.56
0.259,0.22,0.97,-0.14,0.01,0.02,-0.19,-0.02,0.05,0.01,976.56
0.26,0.28,0.98,-0.13,0.01,0.02,-0.19,-0.02,0.05,0.01,976.56
0.261,0.28,0.98,-0.13,0.01,0.02,-0.19,-0.00,-0.02,0.03,976.56
0.262,0.28,0.98,-0.13,-0.30,0.01,0.02,-0.00,-0.02,0.03,976.56
0.263,0.28,0.98,-0.13,-0.30,0.01,0.02,-0.00,-0.02,0.03,976.56
0.278,0.33,0.97,-0.11,-0.30,0.01,0.02,-0.00,-0.02,0.03,976.56
0.288,0.33,0.94,-0.10,-0.30,0.01,0.02,-0.00,-0.02,0.03,976.56
0.289,0.33,0.94,-0.10,-0.30,0.01,0.02,0.01,-0.04,0.00,976.56
0.29,0.33,0.94,-0.10,0.59,0.10,0.09,0.01,-0.04,0.00,976.56
0.315,0.29,0.96,-0.10,0.59,0.10,0.09,0.01,-0.04,0.00,976.56
0.316,0.29,0.96,-0.10,0.59,0.10,0.09,0.01,-0.04,0.00,976.57
0.326,0.27,0.96,-0.13,0.59,0.10,0.09,0.01,-0.04,0.00,976.57
0.328,0.27,0.96,-0.13,0.59,0.10,0.09,0.06,0.13,-0.12,976.57
0.329,0.27,0.96,-0.13,0.61,0.09,0.10,0.06,0.13,-0.12,976.57
0.346,0.23,0.94,-0.15,0.61,0.09,0.10,0.06,0.13,-0.12,976.57
0.366,0.14,0.92,-0.16,0.61,0.09,0.10,0.06,0.13,-0.12,976.57
0.369,0.14,0.92,-0.16,0.61,0.09,0.10,0.06,0.08,-0.19,976.57
0.37,0.14,0.92,-0.16,0.19,-0.03,0.00,0.06,0.08,-0.19,976.57
0.376,0.14,0.92,-0.16,0.19,-0.03,0.00,0.06,0.08,-0.19,976.56
0.386,0.12,0.98,-0.14,0.19,-0.03,0.00,0.06,0.08,-0.19,976.56
0.419,0.17,0.98,-0.11,0.19,-0.03,0.00,0.06,0.08,-0.19,976.56
0.421,0.17,0.98,-0.11,0.19,-0.03,0.00,0.02,-0.10,-0.11,976.56
0.422,0.17,0.98,-0.11,-0.97,0.04,-0.09,0.02,-0.10,-0.11,976.56
0.438,0.26,0.94,-0.11,-0.97,0.04,-0.09,0.02,-0.10,-0.11,976.56
0.439,0.26,0.94,-0.11,-0.97,0.04,-0.09,0.02,-0.10,-0.11,976.57
0.444,0.35,0.92,-0.06,-0.97,0.04,-0.09,0.02,-0.10,-0.11,976.57
0.446,0.35,0.92,-0.06,-0.97,0.04,-0.09,0.07,-0.22,-0.00,976.57
0.446,0.35,0.92,-0.06,-0.94,0.04,-0.04,0.07,-0.22,-0.00,976.57
0.464,0.38,0.96,-0.06,-0.94,0.04,-0.04,0.07,-0.22,-0.00,976.57
0.485,0.37,0.95,-0.09,-0.94,0.04,-0.04,0.07,-0.22,-0.00,976.57
0.487,0.37,0.95,-0.09,-0.94,0.04,-0.04,0.17,-0.22,-0.10,976.57
0.488,0.37,0.95,-0.09,0.96,-0.16,0.64,0.17,-0.22,-0.10,976.57
0.503,0.37,0.95,-0.09,0.96,-0.16,0.64,0.17,-0.22,-0.10,976.57
0.505,0.37,0.94,-0.11,0.96,-0.16,0.64,0.17,-0.22,-0.10,976.57
0.533,0.36,0.94,-0.12,0.96,-0.16,0.64,0.17,-0.22,-0.10,976.57
0.534,0.36,0.94,-0.12,0.96,-0.16,0.64,0.29,-0.05,-0.32,976.57
0.535,0.36,0.94,-0.12,1.40,-0.12,0.43,0.29,-0.05,-0.32,976.57
0.555,0.18,0.97,-0.17,1.40,-0.12,0.43,0.29,-0.05,-0.32,976.57
0.556,0.18,0.97,-0.17,1.40,-0.12,0.43,0.29,-0.05,-0.32,976.58
0.563,0.01,1.03,-0.19,1.40,-0.12,0.43,0.29,-0.05,-0.32,976.58
0.565,0.01,1.03,-0.19,1.40,-0.12,0.43,0.35,0.11,-0.51,976.58
0.566,0.01,1.03,-0.19,1.56,-0.14,0.54,0.35,0.11,-0.51,976.58
0.583,0.04,0.96,-0.22,1.56,-0.14,0.54,0.35,0.11,-0.51,976.58
0.603,0.13,0.91,-0.22,1.56,-0.14,0.54,0.35,0.11,-0.51,976.58
0.604,0.13,0.91,-0.22,1.56,-0.14,0.54,0.29,-0.09,-0.44,976.58
0.604,0.13,0.91,-0.22,-1.07,0.24,-0.18,0.29,-0.09,-0.44,976.58
0.616,0.13,0.91,-0.22,-1.07,0.24,-0.18,0.29,-0.09,-0.44,976.59
0.626,-0.01,0.97,-0.30,-1.07,0.24,-0.18,0.29,-0.09,-0.44,976.59
0.642,-0.07,0.94,-0.28,-1.07,0.24,-0.18,0.29,-0.09,-0.44,976.59
0.643,-0.07,0.94,-0.28,-1.07,0.24,-0.18,0.17,-0.27,-0.23,976.59
0.644,-0.07,0.94,-0.28,-1.55,-0.18,-0.78,0.17,-0.27,-0.23,976.59
0.662,0.04,0.91,-0.20,-1.55,-0.18,-0.78,0.17,-0.27,-0.23,976.59
0.675,0.04,0.91,-0.20,-1.55,-0.18,-0.78,0.17,-0.27,-0.23,976.58
0.682,0.16,1.02,-0.12,-1.55,-0.18,-0.78,0.17,-0.27,-0.23,976.58
0.684,0.16,1.02,-0.12,-1.55,-0.18,-0.78,0.04,-0.81,0.03,976.58
0.685,0.16,1.02,-0.12,-1.47,-0.17,-0.70,0.04,-0.81,0.03,976.58
0.702,0.07,0.98,-0.13,-1.47,-0.17,-0.70,0.04,-0.81,0.03,976.58
0.722,0.10,0.98,-0.19,-1.47,-0.17,-0.70,0.04,-0.81,0.03,976.58
0.723,0.10,0.98,-0.19,-1.47,-0.17,-0.70,0.17,-1.01,0.18,976.58
0.724,0.10,0.98,-0.19,-0.73,0.13,0.55,0.17,-1.01,0.18,976.58
0.735,0.10,0.98,-0.19,-0.73,0.13,0.55,0.17,-1.01,0.18,976.58
0.743,0.25,0.98,-0.23,-0.73,0.13,0.55,0.17,-1.01,0.18,976.58
0.767,0.30,0.95,-0.22,-0.73,0.13,0.55,0.17,-1.01,0.18,976.58
0.769,0.30,0.95,-0.22,-0.73,0.13,0.55,0.28,-0.77,0.19,976.58
0.77,0.30,0.95,-0.22,0.52,0.17,0.08,0.28,-0.77,0.19,976.58
0.781,0.28,0.95,-0.17,0.52,0.17,0.08,0.28,-0.77,0.19,976.58
0.795,0.28,0.95,-0.17,0.52,0.17,0.08,0.28,-0.77,0.19,976.58
0.801,0.15,0.99,-0.21,0.52,0.17,0.08,0.28,-0.77,0.19,976.58
0.802,0.15,0.99,-0.21,0.52,0.17,0.08,0.38,-0.61,0.05,976.58
0.802,0.15,0.99,-0.21,0.55,0.20,0.25,0.38,-0.61,0.05,976.58
0.82,0.21,0.97,-0.27,0.55,0.20,0.25,0.38,-0.61,0.05,976.58
0.84,0.28,0.93,-0.34,0.55,0.20,0.25,0.38,-0.61,0.05,976.58
0.843,0.28,0.93,-0.34,0.55,0.20,0.25,0.46,-0.47,-0.12,976.58
0.844,0.28,0.93,-0.34,0.55,0.21,0.37,0.46,-0.47,-0.12,976.58
0.855,0.28,0.93,-0.34,0.55,0.21,0.37,0.46,-0.47,-0.12,976.58
0.861,0.24,0.96,-0.31,0.55,0.21,0.37,0.46,-0.47,-0.12,976.58
0.88,0.03,0.99,-0.32,0.55,0.21,0.37,0.46,-0.47,-0.12,976.58
0.883,0.03,0.99,-0.32,0.55,0.21,0.37,0.42,-0.11,-0.16,976.58
0.884,0.03,0.99,-0.32,0.34,0.14,-0.46,0.42,-0.11,-0.16,976.58
0.9,-0.06,1.00,-0.37,0.34,0.14,-0.46,0.42,-0.11,-0.16,976.58
0.928,-0.06,1.00,-0.37,0.34,0.14,-0.46,0.42,-0.11,-0.16,976.58
0.931,0.09,0.93,-0.38,0.34,0.14,-0.46,0.42,-0.11,-0.16,976.58
0.933,0.09,0.93,-0.38,0.34,0.14,-0.46,0.33,0.04,-0.16,976.58
0.934,0.09,0.93,-0.38,0.39,0.16,-0.33,0.33,0.04,-0.16,976.58
0.951,0.14,0.92,-0.34,0.39,0.16,-0.33,0.33,0.04,-0.16,976.58
0.961,0.14,0.92,-0.34,-0.82,0.10,-0.66,0.33,0.04,-0.16,976.58
0.963,0.08,0.94,-0.34,-0.82,0.10,-0.66,0.33,0.04,-0.16,976.58
0.964,0.08,0.94,-0.34,-0.82,0.10,-0.66,0.23,-0.12,-0.02,976.58
0.976,0.08,0.94,-0.34,-0.82,0.10,-0.66,0.23,-0.12,-0.02,976.58
0.978,0.10,0.95,-0.32,-0.82,0.10,-0.66,0.23,-0.12,-0.02,976.58
0.998,0.10,0.92,-0.31,-0.82,0.10,-0.66,0.23,-0.12,-0.02,976.58
1.001,0.10,0.92,-0.31,-0.82,0.10,-0.66,0.20,-0.21,0.03,976.58
1.002,0.10,0.92,-0.31,-0.43,0.01,-0.17,0.20,-0.21,0.03,976.58
1.024,0.11,0.94,-0.32,-0.43,0.01,-0.17,0.20,-0.21,0.03,976.58
1.034,0.11,0.94,-0.32,-0.43,0.01,-0.17,0.20,-0.21,0.03,976.58
1.038,0.17,0.97,-0.27,-0.43,0.01,-0.17,0.20,-0.21,0.03,976.58
1.039,0.17,0.97,-0.27,-0.43,0.01,-0.17,0.20,-0.32,0.09,976.58
1.039,0.17,0.97,-0.27,-0.42,0.04,-0.08,0.20,-0.32,0.09,976.58
1.057,0.06,0.98,-0.26,-0.42,0.04,-0.08,0.20,-0.32,0.09,976.58
1.081,-0.01,0.97,-0.29,-0.42,0.04,-0.08,0.20,-0.32,0.09,976.58
1.086,-0.01,0.97,-0.29,-0.42,0.04,-0.08,0.28,-0.04,0.13,976.58
1.088,-0.01,0.97,-0.29,-0.28,0.33,0.39,0.28,-0.04,0.13,976.58
1.096,-0.01,0.97,-0.29,-0.28,0.33,0.39,0.28,-0.04,0.13,976.58
1.099,0.08,0.93,-0.31,-0.28,0.33,0.39,0.28,-0.04,0.13,976.58
1.13,0.11,0.93,-0.38,-0.28,0.33,0.39,0.28,-0.04,0.13,976.58
1.134,0.11,0.93,-0.38,-0.28,0.33,0.39,0.37,-0.01,0.26,976.58
1.136,0.11,0.93,-0.38,-0.90,0.17,0.11,0.37,-0.01,0.26,976.58
1.14,0.07,0.92,-0.36,-0.90,0.17,0.11,0.37,-0.01,0.26,976.58
1.158,0.07,0.92,-0.36,-0.90,0.17,0.11,0.37,-0.01,0.26,976.58
1.165,0.01,0.95,-0.35,-0.90,0.17,0.11,0.37,-0.01,0.26,976.58
1.167,0.01,0.95,-0.35,-0.90,0.17,0.11,0.43,-0.01,0.40,976.58
1.17,0.01,0.95,-0.35,-1.03,0.24,0.26,0.43,-0.01,0.40,976.58
1.177,0.09,0.98,-0.31,-1.03,0.24,0.26,0.43,-0.01,0.40,976.58
1.196,0.17,0.93,-0.28,-1.03,0.24,0.26,0.43,-0.01,0.40,976.58
1.198,0.17,0.93,-0.28,-1.03,0.24,0.26,0.48,0.01,0.53,976.58
1.2,0.17,0.93,-0.28,-1.22,0.42,0.29,0.48,0.01,0.53,976.58
1.224,0.17,0.93,-0.28,-1.22,0.42,0.29,0.48,0.01,0.53,976.59
1.227,0.14,0.92,-0.39,-1.22,0.42,0.29,0.48,0.01,0.53,976.59
1.235,0.19,0.96,-0.46,-1.22,0.42,0.29,0.48,0.01,0.53,976.59
1.237,0.19,0.96,-0.46,-1.22,0.42,0.29,0.56,0.05,0.67,976.59
1.238,0.19,0.96,-0.46,-0.36,0.40,0.11,0.56,0.05,0.67,976.59
1.255,0.14,0.96,-0.51,-0.36,0.40,0.11,0.56,0.05,0.67,976.59
1.275,0.14,0.96,-0.51,-0.36,0.40,0.11,0.56,0.05,0.67,976.60
1.278,0.20,0.96,-0.51,-0.36,0.40,0.11,0.56,0.05,0.67,976.60
1.28,0.20,0.96,-0.51,-0.36,0.40,0.11,0.59,0.26,0.67,976.60
1.281,0.20,0.96,-0.51,-0.62,0.54,0.29,0.59,0.26,0.67,976.60
1.295,0.12,1.14,-0.57,-0.62,0.54,0.29,0.59,0.26,0.67,976.60
1.315,0.28,1.49,-0.57,-0.62,0.54,0.29,0.59,0.26,0.67,976.60
1.318,0.28,1.49,-0.57,-0.62,0.54,0.29,0.61,0.73,0.56,976.60
1.32,0.28,1.49,-0.57,-1.01,1.50,-1.05,0.61,0.73,0.56,976.60
1.348,0.28,1.49,-0.57,-1.01,1.50,-1.05,0.61,0.73,0.56,976.60
1.351,0.69,1.77,-0.41,-1.01,1.50,-1.05,0.61,0.73,0.56,976.60
1.354,0.62,1.57,-0.17,-1.01,1.50,-1.05,0.61,0.73,0.56,976.60
1.355,0.62,1.57,-0.17,2.32,7.28,0.39,0.61,0.73,0.56,976.60
1.356,0.62,1.57,-0.17,2.32,7.28,0.39,0.33,0.99,0.49,976.60
1.373,0.18,1.93,-0.31,2.32,7.28,0.39,0.33,0.99,0.49,976.60
1.393,-0.71,1.80,-0.17,2.32,7.28,0.39,0.33,0.99,0.49,976.60
1.394,-0.71,1.80,-0.17,2.32,7.28,0.39,-0.30,1.32,0.04,976.60
1.394,-0.71,1.80,-0.17,2.06,7.11,0.13,-0.30,1.32,0.04,976.60
1.395,-0.71,1.80,-0.17,2.06,7.11,0.13,-0.30,1.32,0.04,976.60
1.414,-1.07,1.17,0.05,2.06,7.11,0.13,-0.30,1.32,0.04,976.60
1.443,-1.01,1.15,-0.03,2.06,7.11,0.13,-0.30,1.32,0.04,976.60
1.444,-1.01,1.15,-0.03,2.06,7.11,0.13,-0.54,1.95,0.05,976.60
1.445,-1.01,1.15,-0.03,-8.53,7.16,2.00,-0.54,1.95,0.05,976.60
1.454,-0.09,1.84,-0.88,-8.53,7.16,2.00,-0.54,1.95,0.05,976.60
1.456,-0.09,1.84,-0.88,-8.53,7.16,2.00,-0.54,1.95,0.05,976.60
1.471,0.98,1.82,-0.56,-8.53,7.16,2.00,-0.54,1.95,0.05,976.60
1.473,0.98,1.82,-0.56,-8.53,7.16,2.00,0.96,0.14,1.81,976.60
1.474,0.98,1.82,-0.56,-4.24,7.12,-1.07,0.96,0.14,1.81,976.60
1.492,0.69,1.55,-0.34,-4.24,7.12,-1.07,0.96,0.14,1.81,976.60
1.511,0.18,1.49,-0.47,-4.24,7.12,-1.07,0.96,0.14,1.81,976.60
1.512,0.18,1.49,-0.47,-4.24,7.12,-1.07,1.71,0.30,2.68,976.60
1.513,0.18,1.49,-0.47,-5.08,7.72,-0.56,1.71,0.30,2.68,976.60
1.514,0.18,1.49,-0.47,-5.08,7.72,-0.56,1.71,0.30,2.68,976.59
1.544,0.50,1.41,-0.81,-5.08,7.72,-0.56,1.71,0.30,2.68,976.59
1.552,0.73,1.07,-0.64,-5.08,7.72,-0.56,1.71,0.30,2.68,976.59
1.554,0.73,1.07,-0.64,-5.08,7.72,-0.56,1.69,1.81,2.49,976.59
1.556,0.73,1.07,-0.64,-1.30,7.24,-0.90,1.69,1.81,2.49,976.59
1.577,0.67,0.67,-0.34,-1.30,7.24,-0.90,1.69,1.81,2.49,976.59
1.58,0.67,0.67,-0.34,-1.30,7.24,-0.90,1.69,1.81,2.49,976.57
1.59,0.53,0.49,-0.34,-1.30,7.24,-0.90,1.69,1.81,2.49,976.57
1.592,0.53,0.49,-0.34,-1.30,7.24,-0.90,1.13,1.65,2.27,976.57
1.594,0.53,0.49,-0.34,-0.34,0.70,-0.01,1.13,1.65,2.27,976.57
1.636,0.42,0.43,-0.30,-0.34,0.70,-0.01,1.13,1.65,2.27,976.57
1.639,0.42,0.43,-0.30,-0.80,1.16,-0.06,1.13,1.65,2.27,976.57
1.641,0.44,0.36,-0.40,-0.80,1.16,-0.06,1.13,1.65,2.27,976.57
1.642,0.44,0.36,-0.40,-0.80,1.16,-0.06,0.58,0.73,1.41,976.57
1.643,0.44,0.36,-0.40,-0.80,1.16,-0.06,0.58,0.73,1.41,976.56
1.665,0.33,0.24,-0.21,-0.80,1.16,-0.06,0.58,0.73,1.41,976.56
1.671,0.16,0.15,-0.25,-0.80,1.16,-0.06,0.58,0.73,1.41,976.56
1.673,0.16,0.15,-0.25,-0.80,1.16,-0.06,-0.02,-0.52,0.59,976.56
1.674,0.16,0.15,-0.25,-3.22,-2.55,1.37,-0.02,-0.52,0.59,976.56
1.689,0.11,0.13,-0.33,-3.22,-2.55,1.37,-0.02,-0.52,0.59,976.56
1.694,0.11,0.13,-0.33,-3.22,-2.55,1.37,-0.02,-0.52,0.59,976.57
1.711,0.20,0.09,-0.33,-3.22,-2.55,1.37,-0.02,-0.52,0.59,976.57
1.713,0.20,0.09,-0.33,-3.22,-2.55,1.37,-0.58,-1.61,-0.18,976.57
1.714,0.20,0.09,-0.33,-5.19,-4.74,1.67,-0.58,-1.61,-0.18,976.57
1.731,0.22,0.00,-0.27,-5.19,-4.74,1.67,-0.58,-1.61,-0.18,976.57
1.749,0.06,-0.04,-0.38,-5.19,-4.74,1.67,-0.58,-1.61,-0.18,976.57
1.75,0.06,-0.04,-0.38,-5.19,-4.74,1.67,-1.06,-2.23,-0.79,976.57
1.751,0.06,-0.04,-0.38,-4.50,-5.06,1.94,-1.06,-2.23,-0.79,976.57
1.753,0.06,-0.04,-0.38,-4.50,-5.06,1.94,-1.06,-2.23,-0.79,976.57
1.768,0.05,-0.07,-0.44,-4.50,-5.06,1.94,-1.06,-2.23,-0.79,976.57
1.788,0.21,-0.15,-0.49,-4.50,-5.06,1.94,-1.06,-2.23,-0.79,976.57
1.789,0.21,-0.15,-0.49,-4.50,-5.06,1.94,-1.53,-2.62,-1.49,976.57
1.79,0.21,-0.15,-0.49,-3.94,-7.14,1.55,-1.53,-2.62,-1.49,976.57
1.807,0.37,-0.30,-0.51,-3.94,-7.14,1.55,-1.53,-2.62,-1.49,976.57
1.816,0.37,-0.30,-0.51,-3.94,-7.14,1.55,-1.53,-2.62,-1.49,976.55
1.841,0.58,-0.44,-0.57,-3.94,-7.14,1.55,-1.53,-2.62,-1.49,976.55
1.843,0.58,-0.44,-0.57,-3.94,-7.14,1.55,-2.11,-2.66,-2.17,976.55
1.845,0.58,-0.44,-0.57,-0.12,-10.32,-0.20,-2.11,-2.66,-2.17,976.55
1.848,0.61,-0.51,-0.66,-0.12,-10.32,-0.20,-2.11,-2.66,-2.17,976.55
1.869,0.51,-0.37,-0.81,-0.12,-10.32,-0.20,-2.11,-2.66,-2.17,976.55
1.872,0.51,-0.37,-0.81,-0.12,-10.32,-0.20,-2.04,-0.86,-2.82,976.55
1.873,0.51,-0.37,-0.81,0.90,-10.89,-0.70,-2.04,-0.86,-2.82,976.55
1.874,0.51,-0.37,-0.81,0.90,-10.89,-0.70,-2.04,-0.86,-2.82,976.53
1.888,0.87,-0.26,-0.89,0.90,-10.89,-0.70,-2.04,-0.86,-2.82,976.53
1.907,1.16,-0.31,-0.87,0.90,-10.89,-0.70,-2.04,-0.86,-2.82,976.53
1.91,1.16,-0.31,-0.87,0.90,-10.89,-0.70,-1.39,-0.01,-2.47,976.53
1.912,1.16,-0.31,-0.87,4.36,-11.96,-3.64,-1.39,-0.01,-2.47,976.53
1.94,0.95,-0.40,-0.56,4.36,-11.96,-3.64,-1.39,-0.01,-2.47,976.53
1.945,0.95,-0.40,-0.56,4.36,-11.96,-3.64,-1.39,-0.01,-2.47,976.54
1.948,0.63,-0.73,-2.71,4.36,-11.96,-3.64,-1.39,-0.01,-2.47,976.54
1.951,0.63,-0.73,-2.71,4.36,-11.96,-3.64,-0.86,-0.55,-1.34,976.54
1.953,0.63,-0.73,-2.71,7.26,-13.01,-9.54,-0.86,-0.55,-1.34,976.54
1.974,2.21,5.03,0.82,7.26,-13.01,-9.54,-0.86,-0.55,-1.34,976.54
1.986,1.03,4.70,-1.37,7.26,-13.01,-9.54,-0.86,-0.55,-1.34,976.54
1.988,1.03,4.70,-1.37,7.26,-13.01,-9.54,-0.22,-0.70,-0.22,976.54
1.988,1.03,4.70,-1.37,7.31,-12.84,-9.41,-0.22,-0.70,-0.22,976.54
1.994,1.03,4.70,-1.37,7.31,-12.84,-9.41,-0.22,-0.70,-0.22,976.55
2.005,-1.94,-2.35,-0.69,7.31,-12.84,-9.41,-0.22,-0.70,-0.22,976.55
2.025,0.96,-0.87,-0.08,7.31,-12.84,-9.41,-0.22,-0.70,-0.22,976.55
2.027,0.96,-0.87,-0.08,7.31,-12.84,-9.41,0.26,-0.40,-0.12,976.55
2.027,0.96,-0.87,-0.08,2.64,15.76,0.18,0.26,-0.40,-0.12,976.55
2.07,1.06,2.56,-0.74,2.64,15.76,0.18,0.26,-0.40,-0.12,976.55
2.073,1.06,2.56,-0.74,2.64,15.76,0.18,0.26,-0.40,-0.12,976.55
2.074,1.31,2.11,-0.18,2.64,15.76,0.18,0.26,-0.40,-0.12,976.55
2.076,1.31,2.11,-0.18,2.64,15.76,0.18,-0.07,-0.77,1.20,976.55
2.078,1.31,2.11,-0.18,8.87,4.09,0.96,-0.07,-0.77,1.20,976.55
2.085,0.73,0.36,-0.68,8.87,4.09,0.96,-0.07,-0.77,1.20,976.55
2.104,-0.37,0.27,-0.64,8.87,4.09,0.96,-0.07,-0.77,1.20,976.55
2.106,-0.37,0.27,-0.64,8.87,4.09,0.96,0.03,0.28,-0.52,976.55
2.106,-0.37,0.27,-0.64,8.84,3.99,0.94,0.03,0.28,-0.52,976.55
2.12,-0.37,0.27,-0.64,8.84,3.99,0.94,0.03,0.28,-0.52,976.55
2.147,-0.14,0.96,-0.57,8.84,3.99,0.94,0.03,0.28,-0.52,976.55
2.149,0.52,1.36,-0.51,8.84,3.99,0.94,0.03,0.28,-0.52,976.55
2.149,0.52,1.36,-0.51,8.84,3.99,0.94,-0.20,0.62,-0.94,976.55
2.15,0.52,1.36,-0.51,-1.08,-3.33,-2.05,-0.20,0.62,-0.94,976.55
2.163,0.29,1.03,-0.50,-1.08,-3.33,-2.05,-0.20,0.62,-0.94,976.55
2.173,0.29,1.03,-0.50,-1.08,-3.33,-2.05,-0.20,0.62,-0.94,976.54
2.183,-0.13,0.73,-0.50,-1.08,-3.33,-2.05,-0.20,0.62,-0.94,976.54
2.184,-0.13,0.73,-0.50,-1.08,-3.33,-2.05,-0.46,0.30,-0.63,976.54
2.185,-0.13,0.73,-0.50,0.57,1.56,-0.95,-0.46,0.30,-0.63,976.54
2.203,-0.07,0.81,-0.38,0.57,1.56,-0.95,-0.46,0.30,-0.63,976.54
2.224,0.07,0.95,-0.27,0.57,1.56,-0.95,-0.46,0.30,-0.63,976.54
2.226,0.07,0.95,-0.27,0.57,1.56,-0.95,-0.54,0.44,-0.65,976.54
2.226,0.07,0.95,-0.27,0.71,1.41,-1.15,-0.54,0.44,-0.65,976.54
2.25,0.07,0.95,-0.27,0.71,1.41,-1.15,-0.54,0.44,-0.65,976.55
2.252,0.07,0.95,-0.22,0.71,1.41,-1.15,-0.54,0.44,-0.65,976.55
2.266,-0.05,0.89,-0.25,0.71,1.41,-1.15,-0.54,0.44,-0.65,976.55
2.268,-0.05,0.89,-0.25,0.71,1.41,-1.15,-0.47,0.21,-0.40,976.55
2.271,-0.05,0.89,-0.25,-1.15,-0.02,0.75,-0.47,0.21,-0.40,976.55
2.283,-0.12,0.83,-0.25,-1.15,-0.02,0.75,-0.47,0.21,-0.40,976.55
2.293,-0.12,0.83,-0.25,-1.15,-0.02,0.75,-0.47,0.21,-0.40,976.55
2.303,-0.01,0.83,-0.20,-1.15,-0.02,0.75,-0.47,0.21,-0.40,976.55
2.305,-0.01,0.83,-0.20,-1.15,-0.02,0.75,-0.27,0.12,-0.16,976.55
2.308,-0.01,0.83,-0.20,-1.88,-0.57,1.18,-0.27,0.12,-0.16,976.55
2.325,0.05,0.90,-0.20,-1.88,-0.57,1.18,-0.27,0.12,-0.16,976.55
2.342,0.06,0.89,-0.24,-1.88,-0.57,1.18,-0.27,0.12,-0.16,976.55
2.343,0.06,0.89,-0.24,-1.88,-0.57,1.18,-0.06,-0.08,0.14,976.55
2.344,0.06,0.89,-0.24,-1.89,-0.56,1.14,-0.06,-0.08,0.14,976.55
2.352,0.06,0.89,-0.24,-1.89,-0.56,1.14,-0.06,-0.08,0.14,976.54
2.362,0.05,0.80,-0.28,-1.89,-0.56,1.14,-0.06,-0.08,0.14,976.54
2.383,-0.09,0.88,-0.31,-1.89,-0.56,1.14,-0.06,-0.08,0.14,976.54
2.387,-0.09,0.88,-0.31,-1.89,-0.56,1.14,0.13,-0.10,0.37,976.54
2.389,-0.09,0.88,-0.31,-0.91,-0.39,1.13,0.13,-0.10,0.37,976.54
2.401,-0.18,1.06,-0.40,-0.91,-0.39,1.13,0.13,-0.10,0.37,976.54
2.415,-0.18,1.06,-0.40,-0.91,-0.39,1.13,0.13,-0.10,0.37,976.54
2.422,0.14,1.09,-0.43,-0.91,-0.39,1.13,0.13,-0.10,0.37,976.54
2.424,0.14,1.09,-0.43,-0.91,-0.39,1.13,0.24,-0.09,0.58,976.54
2.426,0.14,1.09,-0.43,-2.01,1.11,-0.14,0.24,-0.09,0.58,976.54
2.445,0.42,1.08,-0.48,-2.01,1.11,-0.14,0.24,-0.09,0.58,976.54
2.462,0.42,1.08,-0.48,-2.25,1.17,-0.08,0.24,-0.09,0.58,976.54
2.464,0.26,1.12,-0.63,-2.25,1.17,-0.08,0.24,-0.09,0.58,976.54
2.465,0.26,1.12,-0.63,-2.25,1.17,-0.08,0.19,0.06,0.78,976.54
2.473,0.26,1.12,-0.63,-2.25,1.17,-0.08,0.19,0.06,0.78,976.55
2.48,0.33,1.26,-0.58,-2.25,1.17,-0.08,0.19,0.06,0.78,976.55
2.5,0.56,1.53,-0.40,-2.25,1.17,-0.08,0.19,0.06,0.78,976.55
2.502,0.56,1.53,-0.40,-2.25,1.17,-0.08,-0.14,0.43,0.47,976.55
2.504,0.56,1.53,-0.40,1.21,2.51,-1.95,-0.14,0.43,0.47,976.55
2.52,0.48,1.81,-0.24,1.21,2.51,-1.95,-0.14,0.43,0.47,976.55
2.553,0.48,1.81,-0.24,1.21,2.51,-1.95,-0.14,0.43,0.47,976.56
2.558,0.07,1.84,-0.04,1.21,2.51,-1.95,-0.14,0.43,0.47,976.56
2.559,0.07,1.84,-0.04,1.21,2.51,-1.95,-0.53,0.77,-0.01,976.56
2.56,0.07,1.84,-0.04,1.42,7.92,1.10,-0.53,0.77,-0.01,976.56
2.586,-0.32,1.54,0.09,1.42,7.92,1.10,-0.53,0.77,-0.01,976.56
2.593,-0.67,1.21,0.17,1.42,7.92,1.10,-0.53,0.77,-0.01,976.56
2.596,-0.67,1.21,0.17,1.42,7.92,1.10,-0.79,0.74,-0.25,976.56
2.598,-0.67,1.21,0.17,1.40,7.67,0.74,-0.79,0.74,-0.25,976.56
2.599,-0.67,1.21,0.17,1.40,7.67,0.74,-0.79,0.74,-0.25,976.56
2.6,-1.12,0.82,-0.17,1.40,7.67,0.74,-0.79,0.74,-0.25,976.56
2.628,-0.90,0.90,-1.04,1.40,7.67,0.74,-0.79,0.74,-0.25,976.56
2.631,-0.90,0.90,-1.04,1.40,7.67,0.74,-0.05,0.27,0.39,976.56
2.632,-0.90,0.90,-1.04,-9.12,2.40,3.15,-0.05,0.27,0.39,976.56
2.64,0.69,1.57,-0.56,-9.12,2.40,3.15,-0.05,0.27,0.39,976.56
2.652,0.69,1.57,-0.56,-9.12,2.40,3.15,-0.05,0.27,0.39,976.56
2.657,1.58,1.80,-0.49,-9.12,2.40,3.15,-0.05,0.27,0.39,976.56
2.658,1.58,1.80,-0.49,-9.12,2.40,3.15,1.39,-1.50,3.14,976.56
2.658,1.58,1.80,-0.49,1.28,5.10,-3.25,1.39,-1.50,3.14,976.56
2.677,0.97,1.47,-0.60,1.28,5.10,-3.25,1.39,-1.50,3.14,976.56
2.698,0.47,1.47,-0.53,1.28,5.10,-3.25,1.39,-1.50,3.14,976.56
2.701,0.47,1.47,-0.53,1.28,5.10,-3.25,2.23,0.49,2.90,976.56
2.703,0.47,1.47,-0.53,0.23,5.77,-2.54,2.23,0.49,2.90,976.56
2.715,0.47,1.47,-0.53,0.23,5.77,-2.54,2.23,0.49,2.90,976.54
2.719,0.07,1.34,-0.66,0.23,5.77,-2.54,2.23,0.49,2.90,976.54
2.737,0.15,1.15,-0.51,0.23,5.77,-2.54,2.23,0.49,2.90,976.54
2.74,0.15,1.15,-0.51,0.23,5.77,-2.54,2.11,2.82,2.02,976.54
2.742,0.15,1.15,-0.51,-0.38,6.47,-1.47,2.11,2.82,2.02,976.54
2.761,0.36,1.00,-0.45,-0.38,6.47,-1.47,2.11,2.82,2.02,976.54
2.772,0.36,1.00,-0.45,-0.38,6.47,-1.47,2.11,2.82,2.02,976.53
2.776,0.48,0.82,-0.31,-0.38,6.47,-1.47,2.11,2.82,2.02,976.53
2.777,0.48,0.82,-0.31,-0.38,6.47,-1.47,1.74,1.88,2.33,976.53
2.778,0.48,0.82,-0.31,-3.03,2.96,0.32,1.74,1.88,2.33,976.53
2.796,0.46,0.67,-0.24,-3.03,2.96,0.32,1.74,1.88,2.33,976.53
2.817,0.24,0.65,-0.22,-3.03,2.96,0.32,1.74,1.88,2.33,976.53
2.819,0.24,0.65,-0.22,-3.03,2.96,0.32,1.50,0.70,1.79,976.53
2.821,0.24,0.65,-0.22,-3.54,3.63,0.51,1.50,0.70,1.79,976.53
2.847,0.24,0.65,-0.22,-3.54,3.63,0.51,1.50,0.70,1.79,976.53
2.85,0.00,0.66,-0.21,-3.54,3.63,0.51,1.50,0.70,1.79,976.53
2.855,-0.06,0.49,-0.17,-3.54,3.63,0.51,1.50,0.70,1.79,976.53
2.857,-0.06,0.49,-0.17,-3.54,3.63,0.51,0.99,-0.17,0.68,976.53
2.859,-0.06,0.49,-0.17,-4.52,0.74,2.64,0.99,-0.17,0.68,976.53
2.881,0.06,0.23,-0.10,-4.52,0.74,2.64,0.99,-0.17,0.68,976.53
2.893,0.06,0.23,-0.10,-4.52,0.74,2.64,0.99,-0.17,0.68,976.52
2.897,0.06,0.23,-0.10,-6.09,-2.85,4.13,0.99,-0.17,0.68,976.52
2.898,0.09,0.13,-0.06,-6.09,-2.85,4.13,0.99,-0.17,0.68,976.52
2.899,0.09,0.13,-0.06,-6.09,-2.85,4.13,0.27,-1.38,-0.18,976.52
2.924,0.06,0.15,-0.10,-6.09,-2.85,4.13,0.27,-1.38,-0.18,976.52
2.947,0.08,0.11,-0.12,-6.09,-2.85,4.13,0.27,-1.38,-0.18,976.52
2.949,0.08,0.11,-0.12,-6.09,-2.85,4.13,-0.44,-1.35,-1.31,976.52
2.95,0.08,0.11,-0.12,-5.41,-3.20,4.28,-0.44,-1.35,-1.31,976.52
2.952,0.08,0.11,-0.12,-5.41,-3.20,4.28,-0.44,-1.35,-1.31,976.50
2.953,0.04,0.02,-0.16,-5.41,-3.20,4.28,-0.44,-1.35,-1.31,976.50
2.973,-0.02,-0.02,-0.19,-5.41,-3.20,4.28,-0.44,-1.35,-1.31,976.50
2.977,-0.02,-0.02,-0.19,-5.41,-3.20,4.28,-1.06,-1.13,-2.48,976.50
2.979,-0.02,-0.02,-0.19,-4.17,-5.72,4.05,-1.06,-1.13,-2.48,976.50
2.993,0.05,0.01,-0.32,-4.17,-5.72,4.05,-1.06,-1.13,-2.48,976.50
3.016,0.05,0.01,-0.32,-2.54,-7.19,1.53,-1.06,-1.13,-2.48,976.50
3.019,0.05,0.01,-0.32,-2.54,-7.19,1.53,-1.06,-1.13,-2.48,976.49
3.021,0.26,0.06,-0.59,-2.54,-7.19,1.53,-1.06,-1.13,-2.48,976.49
3.023,0.26,0.06,-0.59,-2.54,-7.19,1.53,-1.55,-1.87,-3.05,976.49
3.034,0.63,0.07,-0.73,-2.54,-7.19,1.53,-1.55,-1.87,-3.05,976.49
3.056,0.89,0.13,-0.82,-2.54,-7.19,1.53,-1.55,-1.87,-3.05,976.49
3.058,0.89,0.13,-0.82,-2.54,-7.19,1.53,-2.06,-2.79,-2.80,976.49
3.059,0.89,0.13,-0.82,-1.13,-7.78,1.19,-2.06,-2.79,-2.80,976.49
3.084,0.89,0.13,-0.82,-1.13,-7.78,1.19,-2.06,-2.79,-2.80,976.48
3.088,1.11,0.13,-0.90,-1.13,-7.78,1.19,-2.06,-2.79,-2.80,976.48
3.092,1.35,-0.02,-0.92,-1.13,-7.78,1.19,-2.06,-2.79,-2.80,976.48
3.093,1.35,-0.02,-0.92,-1.13,-7.78,1.19,-1.85,-1.38,-2.16,976.48
3.094,1.35,-0.02,-0.92,7.33,-7.17,-3.66,-1.85,-1.38,-2.16,976.48
3.12,1.38,-0.10,-0.48,7.33,-7.17,-3.66,-1.85,-1.38,-2.16,976.48
3.174,1.38,-0.10,-0.48,7.33,-7.17,-3.66,-1.85,-1.38,-2.16,976.47
3.175,0.76,-0.21,-2.46,7.33,-7.17,-3.66,-1.85,-1.38,-2.16,976.47
3.176,0.76,-0.21,-2.46,7.33,-7.17,-3.66,-0.82,0.58,-1.38,976.47
3.176,0.76,-0.21,-2.46,10.30,-9.37,-8.45,-0.82,0.58,-1.38,976.47
3.177,-0.35,3.78,-0.25,10.30,-9.37,-8.45,-0.82,0.58,-1.38,976.47
3.178,1.61,4.84,0.51,10.30,-9.37,-8.45,-0.82,0.58,-1.38,976.47
3.179,1.61,4.84,0.51,10.30,-9.37,-8.45,-0.00,0.62,-0.10,976.47
3.18,1.61,4.84,0.51,10.06,-9.22,-8.33,-0.00,0.62,-0.10,976.47
3.19,-1.00,-2.47,-1.56,10.06,-9.22,-8.33,-0.00,0.62,-0.10,976.47
3.192,-1.00,-2.47,-1.56,10.06,-9.22,-8.33,-0.00,0.62,-0.10,976.47
3.21,-0.02,-1.94,-0.25,10.06,-9.22,-8.33,-0.00,0.62,-0.10,976.47
3.211,-0.02,-1.94,-0.25,10.06,-9.22,-8.33,0.33,-0.19,1.03,976.47
3.212,-0.02,-1.94,-0.25,-0.76,11.85,0.20,0.33,-0.19,1.03,976.47
3.235,0.47,2.06,-0.70,-0.76,11.85,0.20,0.33,-0.19,1.03,976.47
3.25,1.31,3.08,-0.34,-0.76,11.85,0.20,0.33,-0.19,1.03,976.47
3.252,1.31,3.08,-0.34,-0.76,11.85,0.20,-0.33,-0.96,1.12,976.47
3.252,1.31,3.08,-0.34,3.88,2.23,0.16,-0.33,-0.96,1.12,976.47
3.253,1.31,3.08,-0.34,3.88,2.23,0.16,-0.33,-0.96,1.12,976.48
3.27,1.22,0.72,-0.46,3.88,2.23,0.16,-0.33,-0.96,1.12,976.48
3.295,1.22,0.72,-0.46,3.83,2.18,0.12,-0.33,-0.96,1.12,976.48
3.298,0.02,-0.14,-0.52,3.83,2.18,0.12,-0.33,-0.96,1.12,976.48
3.299,0.02,-0.14,-0.52,3.83,2.18,0.12,-0.22,-0.51,0.25,976.48
3.312,-0.29,0.65,-0.52,3.83,2.18,0.12,-0.22,-0.51,0.25,976.48
3.313,-0.29,0.65,-0.52,3.83,2.18,0.12,-0.22,-0.51,0.25,976.49
3.354,-0.29,0.65,-0.52,1.28,-4.30,-0.64,-0.22,-0.51,0.25,976.49
3.356,0.27,1.43,-0.46,1.28,-4.30,-0.64,-0.22,-0.51,0.25,976.49
3.357,0.27,1.43,-0.46,1.28,-4.30,-0.64,-0.13,0.45,-0.68,976.49
3.362,0.67,1.29,-0.44,1.28,-4.30,-0.64,-0.13,0.45,-0.68,976.49
3.372,0.25,0.77,-0.53,1.28,-4.30,-0.64,-0.13,0.45,-0.68,976.49
3.374,0.25,0.77,-0.53,2.22,2.94,-0.49,-0.13,0.45,-0.68,976.49
3.375,0.25,0.77,-0.53,2.22,2.94,-0.49,-0.35,-0.15,-0.43,976.49
3.376,0.25,0.77,-0.53,2.22,2.94,-0.49,-0.35,-0.15,-0.43,976.50
3.388,-0.04,0.70,-0.51,2.22,2.94,-0.49,-0.35,-0.15,-0.43,976.50
3.407,0.03,0.90,-0.40,2.22,2.94,-0.49,-0.35,-0.15,-0.43,976.50
3.41,0.03,0.90,-0.40,2.40,2.77,-0.65,-0.35,-0.15,-0.43,976.50
3.411,0.03,0.90,-0.40,2.40,2.77,-0.65,-0.48,0.17,-0.73,976.50
3.428,0.05,0.97,-0.29,2.40,2.77,-0.65,-0.48,0.17,-0.73,976.50
3.43,0.05,0.97,-0.29,2.40,2.77,-0.65,-0.48,0.17,-0.73,976.49
3.447,-0.04,0.90,-0.21,2.40,2.77,-0.65,-0.48,0.17,-0.73,976.49
3.448,-0.04,0.90,-0.21,2.40,2.77,-0.65,-0.62,0.19,-0.67,976.49
3.449,-0.04,0.90,-0.21,-1.14,-0.34,-0.12,-0.62,0.19,-0.67,976.49
3.466,-0.13,0.84,-0.23,-1.14,-0.34,-0.12,-0.62,0.19,-0.67,976.49
3.486,-0.10,0.83,-0.23,-1.14,-0.34,-0.12,-0.62,0.19,-0.67,976.49
3.487,-0.10,0.83,-0.23,-1.14,-0.34,-0.12,-0.44,0.03,-0.39,976.49
3.488,-0.10,0.83,-0.23,-1.99,-0.45,1.41,-0.44,0.03,-0.39,976.49
3.49,-0.10,0.83,-0.23,-1.99,-0.45,1.41,-0.44,0.03,-0.39,976.49
3.506,0.00,0.90,-0.17,-1.99,-0.45,1.41,-0.44,0.03,-0.39,976.49
3.526,-0.04,0.97,-0.13,-1.99,-0.45,1.41,-0.44,0.03,-0.39,976.49
3.526,-0.04,0.97,-0.13,-1.99,-0.45,1.41,-0.16,-0.12,-0.08,976.49
3.526,-0.04,0.97,-0.13,-1.91,-0.47,1.33,-0.16,-0.12,-0.08,976.49
3.546,-0.11,0.91,-0.19,-1.91,-0.47,1.33,-0.16,-0.12,-0.08,976.49
3.55,-0.11,0.91,-0.19,-1.91,-0.47,1.33,-0.16,-0.12,-0.08,976.49
3.566,-0.11,0.89,-0.29,-1.91,-0.47,1.33,-0.16,-0.12,-0.08,976.49
3.567,-0.11,0.89,-0.29,-1.91,-0.47,1.33,0.18,0.02,0.19,976.49
3.568,-0.11,0.89,-0.29,-1.55,0.24,1.97,0.18,0.02,0.19,976.49
3.585,-0.10,0.99,-0.39,-1.55,0.24,1.97,0.18,0.02,0.19,976.49
3.61,-0.10,0.99,-0.39,-1.54,0.79,0.04,0.18,0.02,0.19,976.49
3.614,0.12,1.04,-0.44,-1.54,0.79,0.04,0.18,0.02,0.19,976.49
3.616,0.12,1.04,-0.44,-1.54,0.79,0.04,0.38,0.03,0.53,976.49
3.617,0.12,1.04,-0.44,-1.54,0.79,0.04,0.38,0.03,0.53,976.49
3.641,0.30,1.04,-0.52,-1.54,0.79,0.04,0.38,0.03,0.53,976.49
3.661,0.24,1.11,-0.63,-1.54,0.79,0.04,0.38,0.03,0.53,976.49
3.663,0.24,1.11,-0.63,-1.54,0.79,0.04,0.28,0.11,0.66,976.49
3.664,0.24,1.11,-0.63,-1.75,0.86,0.13,0.28,0.11,0.66,976.49
3.664,0.29,1.17,-0.60,-1.75,0.86,0.13,0.28,0.11,0.66,976.49
3.671,0.29,1.17,-0.60,-1.75,0.86,0.13,0.28,0.11,0.66,976.50
3.685,0.46,1.27,-0.45,-1.75,0.86,0.13,0.28,0.11,0.66,976.50
3.688,0.46,1.27,-0.45,-1.75,0.86,0.13,-0.06,0.31,0.35,976.50
3.689,0.46,1.27,-0.45,1.09,2.15,-1.94,-0.06,0.31,0.35,976.50
3.705,0.41,1.44,-0.32,1.09,2.15,-1.94,-0.06,0.31,0.35,976.50
3.724,0.24,1.66,-0.21,1.09,2.15,-1.94,-0.06,0.31,0.35,976.50
3.725,0.24,1.66,-0.21,1.09,2.15,-1.94,-0.36,0.79,-0.13,976.50
3.725,0.24,1.66,-0.21,1.88,5.40,0.39,-0.36,0.79,-0.13,976.50
3.738,0.24,1.66,-0.21,1.88,5.40,0.39,-0.36,0.79,-0.13,976.51
3.744,-0.12,1.68,-0.14,1.88,5.40,0.39,-0.36,0.79,-0.13,976.51
3.765,-0.60,1.43,0.07,1.88,5.40,0.39,-0.36,0.79,-0.13,976.51
3.766,-0.60,1.43,0.07,1.88,5.40,0.39,-0.65,0.90,-0.44,976.51
3.767,-0.60,1.43,0.07,1.88,5.20,0.10,-0.65,0.90,-0.44,976.51
3.784,-0.87,1.23,0.23,1.88,5.20,0.10,-0.65,0.90,-0.44,976.51
3.791,-0.87,1.23,0.23,1.88,5.20,0.10,-0.65,0.90,-0.44,976.51
3.804,-0.89,1.04,-0.43,1.88,5.20,0.10,-0.65,0.90,-0.44,976.51
3.807,-0.89,1.04,-0.43,1.88,5.20,0.10,-0.55,0.65,-0.03,976.51
3.808,-0.89,1.04,-0.43,-6.85,4.92,3.53,-0.55,0.65,-0.03,976.51
3.824,-0.31,1.23,-0.93,-6.85,4.92,3.53,-0.55,0.65,-0.03,976.51
3.853,1.19,1.75,-0.60,-6.85,4.92,3.53,-0.55,0.65,-0.03,976.51
3.856,1.19,1.75,-0.60,-6.85,4.92,3.53,0.83,-0.58,1.96,976.51
3.858,1.19,1.75,-0.60,-2.30,4.08,-3.02,0.83,-0.58,1.96,976.51
3.859,1.19,1.75,-0.60,-2.30,4.08,-3.02,0.83,-0.58,1.96,976.51
3.862,0.81,1.77,-0.46,-2.30,4.08,-3.02,0.83,-0.58,1.96,976.51
3.889,0.33,1.57,-0.68,-2.30,4.08,-3.02,0.83,-0.58,1.96,976.51
3.892,0.33,1.57,-0.68,-2.30,4.08,-3.02,2.21,-0.17,3.41,976.51
3.894,0.33,1.57,-0.68,-3.40,4.72,-2.21,2.21,-0.17,3.41,976.51
3.902,0.69,1.52,-0.50,-3.40,4.72,-2.21,2.21,-0.17,3.41,976.51
3.911,0.69,1.52,-0.50,-3.40,4.72,-2.21,2.21,-0.17,3.41,976.50
3.921,0.48,1.27,-0.49,-3.40,4.72,-2.21,2.21,-0.17,3.41,976.50
3.924,0.48,1.27,-0.49,-3.40,4.72,-2.21,2.55,1.54,3.04,976.50
3.925,0.48,1.27,-0.49,1.38,8.26,-0.58,2.55,1.54,3.04,976.50
3.943,0.36,1.07,-0.39,1.38,8.26,-0.58,2.55,1.54,3.04,976.50
3.977,0.43,0.93,-0.29,1.38,8.26,-0.58,2.55,1.54,3.04,976.50
3.981,0.43,0.93,-0.29,1.38,8.26,-0.58,2.12,2.21,2.59,976.50
3.985,0.43,0.93,-0.29,-1.59,3.97,1.06,2.12,2.21,2.59,976.50
3.987,0.43,0.93,-0.29,-1.59,3.97,1.06,2.12,2.21,2.59,976.50
3.989,0.37,0.74,-0.23,-1.59,3.97,1.06,2.12,2.21,2.59,976.50
4.001,0.25,0.61,-0.15,-1.59,3.97,1.06,2.12,2.21,2.59,976.50
4.003,0.25,0.61,-0.15,-1.59,3.97,1.06,1.56,1.80,2.01,976.50
4.004,0.25,0.61,-0.15,-2.40,4.68,0.99,1.56,1.80,2.01,976.50
4.022,0.16,0.59,-0.14,-2.40,4.68,0.99,1.56,1.80,2.01,976.50
4.054,0.16,0.59,-0.14,-2.40,4.68,0.99,1.56,1.80,2.01,976.50
4.058,0.01,0.55,-0.09,-2.40,4.68,0.99,1.56,1.80,2.01,976.50
4.059,0.01,0.55,-0.09,-2.40,4.68,0.99,0.90,0.99,1.18,976.50
4.06,0.01,0.55,-0.09,-4.41,0.78,3.01,0.90,0.99,1.18,976.50
4.061,-0.09,0.33,-0.00,-4.41,0.78,3.01,0.90,0.99,1.18,976.50
4.094,-0.00,0.08,-0.04,-4.41,0.78,3.01,0.90,0.99,1.18,976.50
4.096,-0.00,0.08,-0.04,-7.05,-2.29,4.38,0.90,0.99,1.18,976.50
4.097,-0.00,0.08,-0.04,-7.05,-2.29,4.38,0.28,-0.30,0.14,976.50
4.098,-0.00,0.08,-0.04,-7.05,-2.29,4.38,0.28,-0.30,0.14,976.49
4.102,0.20,0.02,-0.06,-7.05,-2.29,4.38,0.28,-0.30,0.14,976.49
4.125,0.20,0.02,-0.06,-6.48,-2.52,4.60,0.28,-0.30,0.14,976.49
4.127,0.27,0.10,-0.03,-6.48,-2.52,4.60,0.28,-0.30,0.14,976.49
4.127,0.27,0.10,-0.03,-6.48,-2.52,4.60,-0.26,-1.36,-0.87,976.49
4.149,0.22,0.14,-0.09,-6.48,-2.52,4.60,-0.26,-1.36,-0.87,976.49
4.151,0.22,0.14,-0.09,-6.48,-2.52,4.60,-0.26,-1.36,-0.87,976.46
4.159,0.28,0.06,-0.10,-6.48,-2.52,4.60,-0.26,-1.36,-0.87,976.46
4.16,0.28,0.06,-0.10,-6.48,-2.52,4.60,-0.91,-1.05,-1.97,976.46
4.16,0.28,0.06,-0.10,-3.24,-5.35,4.36,-0.91,-1.05,-1.97,976.46
4.178,0.36,0.01,-0.18,-3.24,-5.35,4.36,-0.91,-1.05,-1.97,976.46
4.208,0.38,0.02,-0.23,-3.24,-5.35,4.36,-0.91,-1.05,-1.97,976.46
4.211,0.38,0.02,-0.23,-3.24,-5.35,4.36,-1.41,-0.60,-2.85,976.46
4.215,0.38,0.02,-0.23,-1.30,-6.65,2.98,-1.41,-0.60,-2.85,976.46
4.22,0.38,0.02,-0.23,-1.30,-6.65,2.98,-1.41,-0.60,-2.85,976.44
4.222,0.48,0.04,-0.33,-1.30,-6.65,2.98,-1.41,-0.60,-2.85,976.44
4.242,0.56,0.13,-0.47,-1.30,-6.65,2.98,-1.41,-0.60,-2.85,976.44
4.243,0.56,0.13,-0.47,-1.30,-6.65,2.98,-1.71,-0.48,-3.25,976.44
4.243,0.56,0.13,-0.47,-0.27,-7.36,2.52,-1.71,-0.48,-3.25,976.44
4.259,0.59,0.36,-0.60,-0.27,-7.36,2.52,-1.71,-0.48,-3.25,976.44
4.27,0.59,0.36,-0.60,-0.27,-7.36,2.52,-1.71,-0.48,-3.25,976.43
4.276,0.74,0.42,-0.73,-0.27,-7.36,2.52,-1.71,-0.48,-3.25,976.43
4.277,0.74,0.42,-0.73,-0.27,-7.36,2.52,-1.82,-0.68,-2.85,976.43
4.278,0.74,0.42,-0.73,2.70,-6.45,-0.85,-1.82,-0.68,-2.85,976.43
4.296,0.97,0.26,-0.75,2.70,-6.45,-0.85,-1.82,-0.68,-2.85,976.43
4.317,0.92,0.22,-0.70,2.70,-6.45,-0.85,-1.82,-0.68,-2.85,976.43
4.321,0.92,0.22,-0.70,2.70,-6.45,-0.85,-1.53,-1.03,-1.95,976.43
4.323,0.92,0.22,-0.70,6.61,-5.50,-3.75,-1.53,-1.03,-1.95,976.43
4.331,0.92,0.22,-0.70,6.61,-5.50,-3.75,-1.53,-1.03,-1.95,976.43
4.337,0.81,0.26,-0.46,6.61,-5.50,-3.75,-1.53,-1.03,-1.95,976.43
4.359,0.77,-0.10,-1.75,6.61,-5.50,-3.75,-1.53,-1.03,-1.95,976.43
4.364,0.77,-0.10,-1.75,6.61,-5.50,-3.75,-1.00,-0.21,-1.31,976.43
4.366,0.77,-0.10,-1.75,6.97,-5.62,-4.00,-1.00,-0.21,-1.31,976.43
4.384,0.93,3.26,-1.89,6.97,-5.62,-4.00,-1.00,-0.21,-1.31,976.43
4.395,0.93,3.26,-1.89,6.97,-5.62,-4.00,-1.00,-0.21,-1.31,976.43
4.396,0.88,4.99,1.88,6.97,-5.62,-4.00,-1.00,-0.21,-1.31,976.43
4.396,0.88,4.99,1.88,6.53,2.53,-10.14,-1.00,-0.21,-1.31,976.43
4.397,0.88,4.99,1.88,6.53,2.53,-10.14,-0.18,-0.30,-0.08,976.43
4.416,-1.63,-2.00,-2.28,6.53,2.53,-10.14,-0.18,-0.30,-0.08,976.43
4.437,0.17,-1.70,0.06,6.53,2.53,-10.14,-0.18,-0.30,-0.08,976.43
4.44,0.17,-1.70,0.06,6.53,2.53,-10.14,0.51,0.26,-0.16,976.43
4.442,0.17,-1.70,0.06,-3.50,-4.26,2.29,0.51,0.26,-0.16,976.43
4.467,0.17,-1.70,0.06,-3.50,-4.26,2.29,0.51,0.26,-0.16,976.44
4.47,1.09,2.15,-0.49,-3.50,-4.26,2.29,0.51,0.26,-0.16,976.44
4.476,0.76,2.92,-0.19,-3.50,-4.26,2.29,0.51,0.26,-0.16,976.44
4.478,0.76,2.92,-0.19,-3.50,-4.26,2.29,-0.44,-1.45,0.63,976.44
4.48,0.76,2.92,-0.19,-3.46,-4.21,2.20,-0.44,-1.45,0.63,976.44
4.495,0.54,0.74,-0.34,-3.46,-4.21,2.20,-0.44,-1.45,0.63,976.44
4.51,0.54,0.74,-0.34,-3.46,-4.21,2.20,-0.44,-1.45,0.63,976.45
4.516,0.54,0.74,-0.34,6.31,10.30,-0.17,-0.44,-1.45,0.63,976.45
4.517,0.27,-0.10,-0.46,6.31,10.30,-0.17,-0.44,-1.45,0.63,976.45
4.518,0.27,-0.10,-0.46,6.31,10.30,-0.17,-0.31,-0.22,-0.30,976.45
4.535,-0.06,0.80,-0.44,6.31,10.30,-0.17,-0.31,-0.22,-0.30,976.45
4.565,-0.02,1.48,-0.40,6.31,10.30,-0.17,-0.31,-0.22,-0.30,976.45
4.568,-0.02,1.48,-0.40,6.31,10.30,-0.17,-0.32,0.60,-0.97,976.45
4.57,-0.02,1.48,-0.40,-0.65,-1.64,-1.20,-0.32,0.60,-0.97,976.45
4.579,-0.02,1.48,-0.40,-0.65,-1.64,-1.20,-0.32,0.60,-0.97,976.46
4.581,0.32,1.22,-0.32,-0.65,-1.64,-1.20,-0.32,0.60,-0.97,976.46
4.603,0.32,1.22,-0.32,-0.37,-1.72,-1.39,-0.32,0.60,-0.97,976.46
4.606,0.39,0.76,-0.38,-0.37,-1.72,-1.39,-0.32,0.60,-0.97,976.46
4.607,0.39,0.76,-0.38,-0.37,-1.72,-1.39,-0.64,-0.14,-0.75,976.46
4.613,0.13,0.76,-0.32,-0.37,-1.72,-1.39,-0.64,-0.14,-0.75,976.46
4.63,0.13,0.76,-0.32,-0.37,-1.72,-1.39,-0.64,-0.14,-0.75,976.46
4.65,0.03,1.00,-0.24,-0.37,-1.72,-1.39,-0.64,-0.14,-0.75,976.46
4.654,0.03,1.00,-0.24,2.10,0.01,-0.71,-0.64,-0.14,-0.75,976.46
4.655,0.03,1.00,-0.24,2.10,0.01,-0.71,-0.71,0.24,-1.03,976.46
4.657,-0.07,1.05,-0.25,2.10,0.01,-0.71,-0.71,0.24,-1.03,976.46
4.68,-0.14,0.91,-0.21,2.10,0.01,-0.71,-0.71,0.24,-1.03,976.46
4.681,-0.14,0.91,-0.21,2.10,0.01,-0.71,-0.79,0.38,-1.26,976.46
4.682,-0.14,0.91,-0.21,-0.83,0.63,0.06,-0.79,0.38,-1.26,976.46
4.69,-0.14,0.91,-0.21,-0.83,0.63,0.06,-0.79,0.38,-1.26,976.47
4.691,-0.18,0.86,-0.11,-0.83,0.63,0.06,-0.79,0.38,-1.26,976.47
4.712,-0.20,0.90,-0.05,-0.83,0.63,0.06,-0.79,0.38,-1.26,976.47
4.713,-0.20,0.90,-0.05,-0.83,0.63,0.06,-0.77,0.26,-1.04,976.47
4.714,-0.20,0.90,-0.05,-0.47,0.55,-0.21,-0.77,0.26,-1.04,976.47
4.732,-0.12,1.00,0.00,-0.47,0.55,-0.21,-0.77,0.26,-1.04,976.47
4.753,-0.12,1.00,0.00,-0.47,0.55,-0.21,-0.77,0.26,-1.04,976.47
4.756,-0.12,1.00,0.00,-1.21,-0.14,1.33,-0.77,0.26,-1.04,976.47
4.758,-0.24,1.00,-0.08,-1.21,-0.14,1.33,-0.77,0.26,-1.04,976.47
4.76,-0.24,1.00,-0.08,-1.21,-0.14,1.33,-0.55,0.27,-0.82,976.47
4.778,-0.30,0.89,-0.11,-1.21,-0.14,1.33,-0.55,0.27,-0.82,976.47
4.791,-0.26,0.91,-0.12,-1.21,-0.14,1.33,-0.55,0.27,-0.82,976.47
4.792,-0.26,0.91,-0.12,-1.21,-0.14,1.33,-0.31,0.21,-0.59,976.47
4.792,-0.26,0.91,-0.12,-2.00,-0.02,0.71,-0.31,0.21,-0.59,976.47
4.809,-0.26,0.91,-0.12,-2.00,-0.02,0.71,-0.31,0.21,-0.59,976.46
4.812,-0.09,1.03,-0.19,-2.00,-0.02,0.71,-0.31,0.21,-0.59,976.46
4.831,0.19,1.07,-0.30,-2.00,-0.02,0.71,-0.31,0.21,-0.59,976.46
4.832,0.19,1.07,-0.30,-2.00,-0.02,0.71,-0.24,-0.24,-0.33,976.46
4.833,0.19,1.07,-0.30,-1.84,-0.03,0.61,-0.24,-0.24,-0.33,976.46
4.856,0.31,1.07,-0.13,-1.84,-0.03,0.61,-0.24,-0.24,-0.33,976.46
4.884,0.31,1.07,-0.13,-1.84,-0.03,0.61,-0.24,-0.24,-0.33,976.44
4.886,-0.11,0.95,-0.08,-1.84,-0.03,0.61,-0.24,-0.24,-0.33,976.44
4.887,-0.11,0.95,-0.08,-1.84,-0.03,0.61,-0.39,-0.01,-0.51,976.44
4.888,-0.11,0.95,-0.08,2.32,1.16,-0.55,-0.39,-0.01,-0.51,976.44
4.889,-0.70,0.91,0.09,2.32,1.16,-0.55,-0.39,-0.01,-0.51,976.44
4.909,-1.08,0.86,0.15,2.32,1.16,-0.55,-0.39,-0.01,-0.51,976.44
4.911,-1.08,0.86,0.15,2.32,1.16,-0.55,-0.25,0.94,-0.75,976.44
4.912,-1.08,0.86,0.15,-4.87,-0.30,1.95,-0.25,0.94,-0.75,976.44
4.93,-1.08,0.86,0.15,-4.87,-0.30,1.95,-0.25,0.94,-0.75,976.45
4.933,-0.89,0.79,-0.01,-4.87,-0.30,1.95,-0.25,0.94,-0.75,976.45
4.975,-0.89,0.79,-0.01,-4.94,-0.30,2.01,-0.25,0.94,-0.75,976.45
4.978,-0.25,0.94,-0.16,-4.94,-0.30,2.01,-0.25,0.94,-0.75,976.45
4.979,-0.25,0.94,-0.16,-4.94,-0.30,2.01,0.25,0.06,0.40,976.45
4.98,0.26,1.18,-0.21,-4.94,-0.30,2.01,0.25,0.06,0.40,976.45
5.012,0.37,1.20,-0.15,-4.94,-0.30,2.01,0.25,0.06,0.40,976.45
5.016,0.37,1.20,-0.15,-4.94,-0.30,2.01,0.42,-0.77,1.16,976.45
5.017,0.37,1.20,-0.15,-4.94,-0.30,2.01,0.42,-0.77,1.16,976.46
5.019,0.37,1.20,-0.15,-2.04,0.27,0.34,0.42,-0.77,1.16,976.46
5.021,-0.10,0.92,-0.16,-2.04,0.27,0.34,0.42,-0.77,1.16,976.46
5.028,-0.48,0.89,-0.17,-2.04,0.27,0.34,0.42,-0.77,1.16,976.46
5.029,-0.48,0.89,-0.17,-2.04,0.27,0.34,0.33,0.28,0.62,976.46
5.029,-0.48,0.89,-0.17,-0.07,0.62,0.16,0.33,0.28,0.62,976.46
5.047,-0.46,1.11,-0.17,-0.07,0.62,0.16,0.33,0.28,0.62,976.46
5.049,-0.46,1.11,-0.17,-0.07,0.62,0.16,0.33,0.28,0.62,976.47
5.068,-0.08,1.42,-0.17,-0.07,0.62,0.16,0.33,0.28,0.62,976.47
5.071,-0.08,1.42,-0.17,-0.07,0.62,0.16,0.34,0.27,0.68,976.47
5.072,-0.08,1.42,-0.17,-0.34,0.62,0.28,0.34,0.27,0.68,976.47
5.087,0.24,1.56,-0.01,-0.34,0.62,0.28,0.34,0.27,0.68,976.47
5.107,-0.01,1.61,0.02,-0.34,0.62,0.28,0.34,0.27,0.68,976.47
5.108,-0.01,1.61,0.02,-0.34,0.62,0.28,0.21,-0.19,1.00,976.47
5.109,-0.01,1.61,0.02,-0.94,4.09,0.73,0.21,-0.19,1.00,976.47
5.11,-0.01,1.61,0.02,-0.94,4.09,0.73,0.21,-0.19,1.00,976.47
5.127,-0.50,1.56,-0.01,-0.94,4.09,0.73,0.21,-0.19,1.00,976.47
5.148,-0.50,1.56,-0.01,-4.07,5.21,2.06,0.21,-0.19,1.00,976.47
5.15,-0.66,1.29,0.06,-4.07,5.21,2.06,0.21,-0.19,1.00,976.47
5.151,-0.66,1.29,0.06,-4.07,5.21,2.06,0.00,0.85,0.79,976.47
5.171,-0.79,1.08,0.16,-4.07,5.21,2.06,0.00,0.85,0.79,976.47
5.174,-0.79,1.08,0.16,-4.07,5.21,2.06,0.00,0.85,0.79,976.46
5.218,-0.92,1.19,-0.22,-4.07,5.21,2.06,0.00,0.85,0.79,976.46
5.221,-0.92,1.19,-0.22,-4.46,5.14,2.02,0.00,0.85,0.79,976.46
5.222,-0.92,1.19,-0.22,-4.46,5.14,2.02,0.01,0.79,1.11,976.46
5.226,-0.48,1.51,-0.87,-4.46,5.14,2.02,0.01,0.79,1.11,976.46
5.228,0.67,1.80,-0.51,-4.46,5.14,2.02,0.01,0.79,1.11,976.46
5.23,0.67,1.80,-0.51,-4.46,5.14,2.02,1.00,-1.53,2.52,976.46
5.232,0.67,1.80,-0.51,-8.48,3.08,-0.79,1.00,-1.53,2.52,976.46
5.234,0.67,1.80,-0.51,-8.48,3.08,-0.79,1.00,-1.53,2.52,976.45
5.245,0.97,1.63,-0.30,-8.48,3.08,-0.79,1.00,-1.53,2.52,976.45
5.27,0.58,1.49,-0.43,-8.48,3.08,-0.79,1.00,-1.53,2.52,976.45
5.272,0.58,1.49,-0.43,4.79,7.09,-1.01,1.00,-1.53,2.52,976.45
5.273,0.58,1.49,-0.43,4.79,7.09,-1.01,1.86,-1.33,3.35,976.45
5.287,0.35,1.57,-0.36,4.79,7.09,-1.01,1.86,-1.33,3.35,976.45
5.289,0.35,1.57,-0.36,4.79,7.09,-1.01,1.86,-1.33,3.35,976.46
5.305,-0.09,1.42,-0.45,4.79,7.09,-1.01,1.86,-1.33,3.35,976.46
5.307,-0.09,1.42,-0.45,4.79,7.09,-1.01,1.88,1.74,2.39,976.46
5.308,-0.09,1.42,-0.45,3.67,7.49,-0.57,1.88,1.74,2.39,976.46
5.325,-0.15,1.10,-0.33,3.67,7.49,-0.57,1.88,1.74,2.39,976.46
5.345,0.29,0.91,-0.25,3.67,7.49,-0.57,1.88,1.74,2.39,976.46
5.347,0.29,0.91,-0.25,3.67,7.49,-0.57,1.46,2.10,2.26,976.46
5.348,0.29,0.91,-0.25,-4.20,5.28,-0.12,1.46,2.10,2.26,976.46
5.349,0.29,0.91,-0.25,-4.20,5.28,-0.12,1.46,2.10,2.26,976.46
5.368,0.47,0.81,-0.21,-4.20,5.28,-0.12,1.46,2.10,2.26,976.46
5.399,0.26,0.71,-0.17,-4.20,5.28,-0.12,1.46,2.10,2.26,976.46
5.403,0.26,0.71,-0.17,-4.20,5.28,-0.12,1.27,0.74,2.26,976.46
5.406,0.26,0.71,-0.17,-1.97,0.49,1.75,1.27,0.74,2.26,976.46
5.408,0.10,0.59,-0.18,-1.97,0.49,1.75,1.27,0.74,2.26,976.46
5.41,0.10,0.59,-0.18,-1.97,0.49,1.75,1.27,0.74,2.26,976.46
5.423,0.07,0.49,-0.21,-1.97,0.49,1.75,1.27,0.74,2.26,976.46
5.428,0.07,0.49,-0.21,-1.97,0.49,1.75,0.85,-0.09,1.31,976.46
5.43,0.07,0.49,-0.21,-2.29,0.89,1.98,0.85,-0.09,1.31,976.46
5.443,0.05,0.46,-0.18,-2.29,0.89,1.98,0.85,-0.09,1.31,976.46
5.465,0.04,0.42,-0.22,-2.29,0.89,1.98,0.85,-0.09,1.31,976.46
5.468,0.04,0.42,-0.22,-2.29,0.89,1.98,0.41,-1.12,0.56,976.46
5.47,0.04,0.42,-0.22,-4.81,-1.83,2.51,0.41,-1.12,0.56,976.46
5.471,0.04,0.42,-0.22,-4.81,-1.83,2.51,0.41,-1.12,0.56,976.43
5.492,0.11,0.30,-0.21,-4.81,-1.83,2.51,0.41,-1.12,0.56,976.43
5.503,0.18,0.19,-0.22,-4.81,-1.83,2.51,0.41,-1.12,0.56,976.43
5.504,0.18,0.19,-0.22,-4.81,-1.83,2.51,0.15,-1.73,-0.26,976.43
5.505,0.18,0.19,-0.22,-3.99,-3.82,2.62,0.15,-1.73,-0.26,976.43
5.522,0.16,0.15,-0.23,-3.99,-3.82,2.62,0.15,-1.73,-0.26,976.43
5.529,0.16,0.15,-0.23,-3.99,-3.82,2.62,0.15,-1.73,-0.26,976.41
5.542,0.16,0.13,-0.23,-3.99,-3.82,2.62,0.15,-1.73,-0.26,976.41
5.544,0.16,0.13,-0.23,-3.99,-3.82,2.62,-0.23,-1.58,-1.29,976.41
5.545,0.16,0.13,-0.23,-3.28,-4.04,2.81,-0.23,-1.58,-1.29,976.41
5.567,0.18,0.11,-0.25,-3.28,-4.04,2.81,-0.23,-1.58,-1.29,976.41
5.583,0.22,0.09,-0.36,-3.28,-4.04,2.81,-0.23,-1.58,-1.29,976.41
5.587,0.22,0.09,-0.36,-3.28,-4.04,2.81,-0.82,-1.33,-2.19,976.41
5.59,0.22,0.09,-0.36,-1.78,-6.14,2.55,-0.82,-1.33,-2.19,976.41
5.592,0.22,0.09,-0.36,-1.78,-6.14,2.55,-0.82,-1.33,-2.19,976.40
5.607,0.39,0.07,-0.47,-1.78,-6.14,2.55,-0.82,-1.33,-2.19,976.40
5.624,0.58,0.00,-0.55,-1.78,-6.14,2.55,-0.82,-1.33,-2.19,976.40
5.628,0.58,0.00,-0.55,-1.78,-6.14,2.55,-1.23,-1.28,-2.64,976.40
5.629,0.58,0.00,-0.55,1.46,-7.31,0.14,-1.23,-1.28,-2.64,976.40
5.64,0.68,0.01,-0.61,1.46,-7.31,0.14,-1.23,-1.28,-2.64,976.40
5.65,0.68,0.01,-0.61,1.46,-7.31,0.14,-1.23,-1.28,-2.64,976.40
5.67,0.81,0.08,-0.72,1.46,-7.31,0.14,-1.23,-1.28,-2.64,976.40
5.673,0.81,0.08,-0.72,1.46,-7.31,0.14,-1.32,-0.90,-2.48,976.40
5.674,0.81,0.08,-0.72,2.37,-7.60,-0.20,-1.32,-0.90,-2.48,976.40
5.679,1.07,0.08,-0.71,2.37,-7.60,-0.20,-1.32,-0.90,-2.48,976.40
5.699,1.17,-0.01,-0.57,2.37,-7.60,-0.20,-1.32,-0.90,-2.48,976.40
5.7,1.17,-0.01,-0.57,2.37,-7.60,-0.20,-0.96,-0.59,-1.65,976.40
5.7,1.17,-0.01,-0.57,7.36,-7.67,-2.63,-0.96,-0.59,-1.65,976.40
5.708,1.17,-0.01,-0.57,7.36,-7.67,-2.63,-0.96,-0.59,-1.65,976.40
5.72,1.05,-0.16,-0.79,7.36,-7.67,-2.63,-0.96,-0.59,-1.65,976.40
5.739,0.28,1.31,-3.54,7.36,-7.67,-2.63,-0.96,-0.59,-1.65,976.40
5.741,0.28,1.31,-3.54,7.36,-7.67,-2.63,-0.28,-0.64,-0.94,976.40
5.741,0.28,1.31,-3.54,7.47,-4.51,-11.84,-0.28,-0.64,-0.94,976.40
5.765,1.95,6.09,2.48,7.47,-4.51,-11.84,-0.28,-0.64,-0.94,976.40
5.768,1.95,6.09,2.48,7.47,-4.51,-11.84,-0.28,-0.64,-0.94,976.40
5.779,-0.89,-0.63,-1.99,7.47,-4.51,-11.84,-0.28,-0.64,-0.94,976.40
5.781,-0.89,-0.63,-1.99,7.47,-4.51,-11.84,0.29,0.43,0.41,976.40
5.781,-0.89,-0.63,-1.99,7.15,-4.37,-11.57,0.29,0.43,0.41,976.40
5.798,-0.82,-3.52,-0.43,7.15,-4.37,-11.57,0.29,0.43,0.41,976.40
5.82,0.65,1.22,-0.34,7.15,-4.37,-11.57,0.29,0.43,0.41,976.40
5.823,0.65,1.22,-0.34,7.15,-4.37,-11.57,0.41,-0.38,0.72,976.40
5.826,0.65,1.22,-0.34,-0.40,-1.61,4.71,0.41,-0.38,0.72,976.40
5.828,0.65,1.22,-0.34,-0.40,-1.61,4.71,0.41,-0.38,0.72,976.39
5.839,1.09,3.68,-0.33,-0.40,-1.61,4.71,0.41,-0.38,0.72,976.39
5.875,1.15,1.36,-0.41,-0.40,-1.61,4.71,0.41,-0.38,0.72,976.39
5.878,1.15,1.36,-0.41,-0.40,-1.61,4.71,-0.25,-0.95,0.50,976.39
5.879,1.15,1.36,-0.41,8.11,12.27,0.96,-0.25,-0.95,0.50,976.39
5.88,0.00,-0.31,-0.74,8.11,12.27,0.96,-0.25,-0.95,0.50,976.39
5.911,0.00,-0.31,-0.74,8.11,12.27,0.96,-0.25,-0.95,0.50,976.40
5.915,-0.41,0.29,-0.73,8.11,12.27,0.96,-0.25,-0.95,0.50,976.40
5.918,-0.41,0.29,-0.73,8.11,12.27,0.96,0.26,0.61,-0.66,976.40
5.92,-0.41,0.29,-0.73,8.08,12.08,0.99,0.26,0.61,-0.66,976.40
5.921,-0.08,1.35,-0.59,8.08,12.08,0.99,0.26,0.61,-0.66,976.40
5.939,0.40,1.45,-0.51,8.08,12.08,0.99,0.26,0.61,-0.66,976.40
5.942,0.40,1.45,-0.51,8.08,12.08,0.99,-0.31,0.39,-0.68,976.40
5.943,0.40,1.45,-0.51,-2.74,-4.03,-2.28,-0.31,0.39,-0.68,976.40
5.949,0.40,1.45,-0.51,-2.74,-4.03,-2.28,-0.31,0.39,-0.68,976.42
5.971,0.40,0.83,-0.52,-2.74,-4.03,-2.28,-0.31,0.39,-0.68,976.42
5.98,0.40,0.83,-0.52,1.64,0.89,-0.64,-0.31,0.39,-0.68,976.42
5.983,0.02,0.60,-0.46,1.64,0.89,-0.64,-0.31,0.39,-0.68,976.42
5.985,0.02,0.60,-0.46,1.64,0.89,-0.64,-0.61,-0.02,-0.38,976.42
6.006,-0.01,0.84,-0.41,1.64,0.89,-0.64,-0.61,-0.02,-0.38,976.42
6.009,-0.01,0.84,-0.41,1.64,0.89,-0.64,-0.61,-0.02,-0.38,976.43
6.015,0.10,1.07,-0.34,1.64,0.89,-0.64,-0.61,-0.02,-0.38,976.43
6.017,0.10,1.07,-0.34,1.64,0.89,-0.64,-0.67,0.21,-0.71,976.43
6.019,0.10,1.07,-0.34,1.82,0.74,-0.85,-0.67,0.21,-0.71,976.43
6.035,0.03,0.99,-0.33,1.82,0.74,-0.85,-0.67,0.21,-0.71,976.43
6.057,-0.14,0.82,-0.35,1.82,0.74,-0.85,-0.67,0.21,-0.71,976.43
6.06,-0.14,0.82,-0.35,1.82,0.74,-0.85,-0.64,0.18,-0.65,976.43
6.062,-0.14,0.82,-0.35,-0.29,0.65,0.28,-0.64,0.18,-0.65,976.43
6.084,-0.14,0.82,-0.35,-0.29,0.65,0.28,-0.64,0.18,-0.65,976.43
6.086,-0.15,0.81,-0.32,-0.29,0.65,0.28,-0.64,0.18,-0.65,976.43
6.095,-0.08,0.94,-0.23,-0.29,0.65,0.28,-0.64,0.18,-0.65,976.43
6.096,-0.08,0.94,-0.23,-0.29,0.65,0.28,-0.51,0.14,-0.48,976.43
6.096,-0.08,0.94,-0.23,-1.74,-0.51,0.68,-0.51,0.14,-0.48,976.43
6.125,-0.15,0.97,-0.22,-1.74,-0.51,0.68,-0.51,0.14,-0.48,976.43
6.129,-0.15,0.97,-0.22,-1.74,-0.51,0.68,-0.51,0.14,-0.48,976.43
6.136,-0.16,0.90,-0.20,-1.74,-0.51,0.68,-0.51,0.14,-0.48,976.43
6.141,-0.16,0.90,-0.20,-1.74,-0.51,0.68,-0.34,0.11,-0.25,976.43
6.142,-0.16,0.90,-0.20,-1.64,-0.55,0.55,-0.34,0.11,-0.25,976.43
6.155,-0.08,0.91,-0.25,-1.64,-0.55,0.55,-0.34,0.11,-0.25,976.43
6.184,-0.11,0.96,-0.28,-1.64,-0.55,0.55,-0.34,0.11,-0.25,976.43
6.188,-0.11,0.96,-0.28,-1.64,-0.55,0.55,-0.06,0.04,0.03,976.43
6.19,-0.11,0.96,-0.28,-1.64,0.11,1.24,-0.06,0.04,0.03,976.43
6.192,-0.11,0.96,-0.28,-1.64,0.11,1.24,-0.06,0.04,0.03,976.42
6.198,-0.14,0.94,-0.29,-1.64,0.11,1.24,-0.06,0.04,0.03,976.42
6.221,-0.17,0.89,-0.30,-1.64,0.11,1.24,-0.06,0.04,0.03,976.42
6.224,-0.17,0.89,-0.30,-1.64,0.11,1.24,0.12,0.11,0.24,976.42
6.226,-0.17,0.89,-0.30,-1.83,0.18,0.59,0.12,0.11,0.24,976.42
6.233,-0.12,0.92,-0.29,-1.83,0.18,0.59,0.12,0.11,0.24,976.42
6.248,-0.12,0.92,-0.29,-1.83,0.18,0.59,0.12,0.11,0.24,976.42
6.277,-0.12,0.92,-0.29,-1.96,0.22,0.66,0.12,0.11,0.24,976.42
6.279,-0.05,0.91,-0.36,-1.96,0.22,0.66,0.12,0.11,0.24,976.42
6.28,-0.05,0.91,-0.36,-1.96,0.22,0.66,0.23,-0.05,0.48,976.42
6.281,0.05,0.93,-0.35,-1.96,0.22,0.66,0.23,-0.05,0.48,976.42
6.312,0.11,1.01,-0.35,-1.96,0.22,0.66,0.23,-0.05,0.48,976.42
6.314,0.11,1.01,-0.35,-1.96,0.22,0.66,0.26,-0.32,0.71,976.42
6.314,0.11,1.01,-0.35,-1.16,0.18,0.34,0.26,-0.32,0.71,976.42
6.315,0.11,1.01,-0.35,-1.16,0.18,0.34,0.26,-0.32,0.71,976.42
6.316,0.18,1.01,-0.36,-1.16,0.18,0.34,0.26,-0.32,0.71,976.42
6.331,0.23,1.01,-0.41,-1.16,0.18,0.34,0.26,-0.32,0.71,976.42
6.333,0.23,1.01,-0.41,-1.16,0.18,0.34,0.26,-0.11,0.69,976.42
6.334,0.23,1.01,-0.41,0.69,1.11,0.05,0.26,-0.11,0.69,976.42
6.362,0.11,1.07,-0.45,0.69,1.11,0.05,0.26,-0.11,0.69,976.42
6.391,0.11,1.07,-0.45,0.69,1.11,0.05,0.26,-0.11,0.69,976.41
6.393,0.03,1.10,-0.55,0.69,1.11,0.05,0.26,-0.11,0.69,976.41
6.393,0.03,1.10,-0.55,0.69,1.11,0.05,0.19,0.27,0.58,976.41
6.394,0.03,1.10,-0.55,0.44,1.15,0.11,0.19,0.27,0.58,976.41
6.395,0.20,1.18,-0.54,0.44,1.15,0.11,0.19,0.27,0.58,976.41
6.411,0.38,1.44,-0.43,0.44,1.15,0.11,0.19,0.27,0.58,976.41
6.413,0.38,1.44,-0.43,0.44,1.15,0.11,-0.01,0.47,0.51,976.41
6.414,0.38,1.44,-0.43,-0.40,2.16,-1.29,-0.01,0.47,0.51,976.41
6.428,0.38,1.44,-0.43,-0.40,2.16,-1.29,-0.01,0.47,0.51,976.42
6.431,0.35,1.74,-0.23,-0.40,2.16,-1.29,-0.01,0.47,0.51,976.42
6.475,0.03,1.76,-0.12,-0.40,2.16,-1.29,-0.01,0.47,0.51,976.42
6.48,0.03,1.76,-0.12,-0.40,2.16,-1.29,-0.38,0.62,0.29,976.42
6.481,0.03,1.76,-0.12,0.78,7.23,1.01,-0.38,0.62,0.29,976.42
6.483,-0.11,1.68,-0.03,0.78,7.23,1.01,-0.38,0.62,0.29,976.42
6.504,-0.11,1.68,-0.03,0.78,7.23,1.01,-0.38,0.62,0.29,976.44
6.506,-0.14,1.43,-0.09,0.78,7.23,1.01,-0.38,0.62,0.29,976.44
6.506,-0.14,1.43,-0.09,0.78,7.23,1.01,-0.56,0.82,0.10,976.44
6.507,-0.14,1.43,-0.09,0.63,7.04,0.74,-0.56,0.82,0.10,976.44
6.509,-0.61,1.03,-0.04,0.63,7.04,0.74,-0.56,0.82,0.10,976.44
6.53,-0.96,0.92,-0.45,0.63,7.04,0.74,-0.56,0.82,0.10,976.44
6.532,-0.96,0.92,-0.45,0.63,7.04,0.74,-0.52,1.72,-0.13,976.44
6.533,-0.96,0.92,-0.45,-4.73,4.24,2.41,-0.52,1.72,-0.13,976.44
6.548,-0.96,0.92,-0.45,-4.73,4.24,2.41,-0.52,1.72,-0.13,976.44
6.55,-0.62,1.32,-0.71,-4.73,4.24,2.41,-0.52,1.72,-0.13,976.44
6.576,0.49,1.53,-0.42,-4.73,4.24,2.41,-0.52,1.72,-0.13,976.44
6.579,0.49,1.53,-0.42,-5.76,3.13,-2.07,-0.52,1.72,-0.13,976.44
6.58,0.49,1.53,-0.42,-5.76,3.13,-2.07,0.36,0.25,0.92,976.44
6.614,1.00,1.40,-0.27,-5.76,3.13,-2.07,0.36,0.25,0.92,976.44
6.618,1.00,1.40,-0.27,-5.76,3.13,-2.07,0.36,0.25,0.92,976.44
6.62,0.53,1.26,-0.46,-5.76,3.13,-2.07,0.36,0.25,0.92,976.44
6.622,0.53,1.26,-0.46,-5.76,3.13,-2.07,1.23,-0.52,2.59,976.44
6.624,0.53,1.26,-0.46,-6.50,3.50,-1.55,1.23,-0.52,2.59,976.44
6.63,0.39,1.40,-0.55,-6.50,3.50,-1.55,1.23,-0.52,2.59,976.44
6.648,0.32,1.42,-0.44,-6.50,3.50,-1.55,1.23,-0.52,2.59,976.44
6.649,0.32,1.42,-0.44,-6.50,3.50,-1.55,1.55,1.58,2.31,976.44
6.65,0.32,1.42,-0.44,2.27,4.88,-0.28,1.55,1.58,2.31,976.44
6.672,0.32,1.42,-0.44,2.27,4.88,-0.28,1.55,1.58,2.31,976.43
6.674,0.18,1.18,-0.48,2.27,4.88,-0.28,1.55,1.58,2.31,976.43
6.696,0.24,0.90,-0.40,2.27,4.88,-0.28,1.55,1.58,2.31,976.43
6.698,0.24,0.90,-0.40,2.27,4.88,-0.28,1.20,2.14,2.30,976.43
6.7,0.24,0.90,-0.40,-2.58,3.61,-0.41,1.20,2.14,2.30,976.43
6.707,0.41,0.69,-0.36,-2.58,3.61,-0.41,1.20,2.14,2.30,976.43
6.727,0.41,0.69,-0.36,-2.58,3.61,-0.41,1.20,2.14,2.30,976.43
6.729,0.57,0.60,-0.35,-2.58,3.61,-0.41,1.20,2.14,2.30,976.43
6.73,0.57,0.60,-0.35,-2.58,3.61,-0.41,0.81,1.14,2.40,976.43
6.731,0.57,0.60,-0.35,-3.41,4.19,-0.40,0.81,1.14,2.40,976.43
6.747,0.49,0.62,-0.38,-3.41,4.19,-0.40,0.81,1.14,2.40,976.43
6.772,0.20,0.62,-0.34,-3.41,4.19,-0.40,0.81,1.14,2.40,976.43
6.776,0.20,0.62,-0.34,-3.41,4.19,-0.40,0.70,0.05,1.86,976.43
6.778,0.20,0.62,-0.34,-1.52,-0.43,0.53,0.70,0.05,1.86,976.43
6.814,-0.05,0.50,-0.29,-1.52,-0.43,0.53,0.70,0.05,1.86,976.43
6.817,-0.05,0.50,-0.29,-1.52,-0.43,0.53,0.70,0.05,1.86,976.42
6.819,-0.07,0.30,-0.22,-1.52,-0.43,0.53,0.70,0.05,1.86,976.42
6.821,-0.07,0.30,-0.22,-1.52,-0.43,0.53,0.36,-1.01,0.68,976.42
6.822,-0.07,0.30,-0.22,-5.95,-1.80,1.63,0.36,-1.01,0.68,976.42
6.828,-0.11,0.14,-0.24,-5.95,-1.80,1.63,0.36,-1.01,0.68,976.42
6.846,-0.04,0.09,-0.20,-5.95,-1.80,1.63,0.36,-1.01,0.68,976.42
6.849,-0.04,0.09,-0.20,-5.95,-1.80,1.63,-0.04,-2.25,-0.29,976.42
6.851,-0.04,0.09,-0.20,-5.37,-1.85,2.12,-0.04,-2.25,-0.29,976.42
6.854,-0.04,0.09,-0.20,-5.37,-1.85,2.12,-0.04,-2.25,-0.29,976.42
6.869,0.11,0.13,-0.28,-5.37,-1.85,2.12,-0.04,-2.25,-0.29,976.42
6.899,0.10,0.14,-0.28,-5.37,-1.85,2.12,-0.04,-2.25,-0.29,976.42
6.901,0.10,0.14,-0.28,-5.37,-1.85,2.12,-0.54,-2.25,-1.32,976.42
6.902,0.10,0.14,-0.28,-4.93,-5.61,2.82,-0.54,-2.25,-1.32,976.42
6.906,0.06,0.11,-0.29,-4.93,-5.61,2.82,-0.54,-2.25,-1.32,976.42
6.908,0.06,0.11,-0.29,-4.93,-5.61,2.82,-0.54,-2.25,-1.32,976.41
6.924,0.08,0.06,-0.36,-4.93,-5.61,2.82,-0.54,-2.25,-1.32,976.41
6.925,0.08,0.06,-0.36,-4.93,-5.61,2.82,-1.10,-1.78,-2.38,976.41
6.926,0.08,0.06,-0.36,-2.95,-6.26,2.08,-1.10,-1.78,-2.38,976.41
6.944,0.19,0.05,-0.47,-2.95,-6.26,2.08,-1.10,-1.78,-2.38,976.41
6.965,0.37,0.09,-0.56,-2.95,-6.26,2.08,-1.10,-1.78,-2.38,976.41
6.969,0.37,0.09,-0.56,-2.95,-6.26,2.08,-1.47,-1.64,-2.96,976.41
6.971,0.37,0.09,-0.56,-1.70,-6.80,1.81,-1.47,-1.64,-2.96,976.41
6.974,0.37,0.09,-0.56,-1.70,-6.80,1.81,-1.47,-1.64,-2.96,976.40
7.001,0.55,0.18,-0.68,-1.70,-6.80,1.81,-1.47,-1.64,-2.96,976.40
7.008,0.55,0.18,-0.68,2.35,-7.14,-1.05,-1.47,-1.64,-2.96,976.40
7.01,0.73,0.33,-0.76,2.35,-7.14,-1.05,-1.47,-1.64,-2.96,976.40
7.011,0.73,0.33,-0.76,2.35,-7.14,-1.05,-1.52,-1.66,-2.86,976.40
7.03,0.96,0.41,-0.73,2.35,-7.14,-1.05,-1.52,-1.66,-2.86,976.40
7.033,0.96,0.41,-0.73,2.35,-7.14,-1.05,-1.52,-1.66,-2.86,976.39
7.043,1.07,0.29,-0.65,2.35,-7.14,-1.05,-1.52,-1.66,-2.86,976.39
7.044,1.07,0.29,-0.65,2.35,-7.14,-1.05,-1.22,-1.13,-2.13,976.39
7.045,1.07,0.29,-0.65,8.49,-5.03,-2.80,-1.22,-1.13,-2.13,976.39
7.063,1.05,0.12,-0.56,8.49,-5.03,-2.80,-1.22,-1.13,-2.13,976.39
7.083,1.05,0.12,-0.56,8.84,-5.01,-2.86,-1.22,-1.13,-2.13,976.39
7.106,0.61,0.02,-2.57,8.84,-5.01,-2.86,-1.22,-1.13,-2.13,976.39
7.108,0.61,0.02,-2.57,8.84,-5.01,-2.86,-0.34,0.33,-1.66,976.39
7.109,0.61,0.02,-2.57,8.84,-5.01,-2.86,-0.34,0.33,-1.66,976.39
7.11,2.44,4.83,0.66,8.84,-5.01,-2.86,-0.34,0.33,-1.66,976.39
7.123,0.93,3.84,1.03,8.84,-5.01,-2.86,-0.34,0.33,-1.66,976.39
7.126,0.93,3.84,1.03,8.84,-5.01,-2.86,0.34,1.01,0.55,976.39
7.127,0.93,3.84,1.03,12.65,7.81,-3.78,0.34,1.01,0.55,976.39
7.142,-3.00,-2.50,-2.61,12.65,7.81,-3.78,0.34,1.01,0.55,976.39
7.147,-3.00,-2.50,-2.61,12.65,7.81,-3.78,0.34,1.01,0.55,976.41
7.162,-0.96,-2.00,-0.29,12.65,7.81,-3.78,0.34,1.01,0.55,976.41
7.165,-0.96,-2.00,-0.29,12.65,7.81,-3.78,0.65,0.76,-0.69,976.41
7.167,-0.96,-2.00,-0.29,-10.39,-10.30,-1.58,0.65,0.76,-0.69,976.41
7.195,1.98,2.21,-0.43,-10.39,-10.30,-1.58,0.65,0.76,-0.69,976.41
7.201,1.47,3.29,-0.40,-10.39,-10.30,-1.58,0.65,0.76,-0.69,976.41
7.202,1.47,3.29,-0.40,-10.39,-10.30,-1.58,-0.38,-1.89,1.24,976.41
7.202,1.47,3.29,-0.40,-10.28,-10.17,-1.63,-0.38,-1.89,1.24,976.41
7.231,1.47,3.29,-0.40,-10.28,-10.17,-1.63,-0.38,-1.89,1.24,976.42
7.234,0.19,0.64,-0.51,-10.28,-10.17,-1.63,-0.38,-1.89,1.24,976.42
7.241,-0.33,-0.26,-0.50,-10.28,-10.17,-1.63,-0.38,-1.89,1.24,976.42
7.244,-0.33,-0.26,-0.50,-10.28,-10.17,-1.63,-0.25,0.27,-0.00,976.42
7.246,-0.33,-0.26,-0.50,11.28,11.79,0.03,-0.25,0.27,-0.00,976.42
7.259,-0.26,0.65,-0.54,11.28,11.79,0.03,-0.25,0.27,-0.00,976.42
7.266,-0.26,0.65,-0.54,11.28,11.79,0.03,-0.25,0.27,-0.00,976.43
7.283,0.35,1.52,-0.43,11.28,11.79,0.03,-0.25,0.27,-0.00,976.43
7.284,0.35,1.52,-0.43,11.28,11.79,0.03,-0.28,0.43,-0.65,976.43
7.286,0.35,1.52,-0.43,-1.21,-2.05,-0.50,-0.28,0.43,-0.65,976.43
7.312,0.62,1.31,-0.36,-1.21,-2.05,-0.50,-0.28,0.43,-0.65,976.43
7.323,0.62,1.31,-0.36,-1.04,-2.10,-0.65,-0.28,0.43,-0.65,976.43
7.324,0.12,0.76,-0.41,-1.04,-2.10,-0.65,-0.28,0.43,-0.65,976.43
7.325,0.12,0.76,-0.41,-1.04,-2.10,-0.65,-0.48,-0.25,-0.34,976.43
7.326,0.12,0.76,-0.41,-1.04,-2.10,-0.65,-0.48,-0.25,-0.34,976.43
7.339,-0.23,0.67,-0.43,-1.04,-2.10,-0.65,-0.48,-0.25,-0.34,976.43
7.359,-0.17,0.89,-0.36,-1.04,-2.10,-0.65,-0.48,-0.25,-0.34,976.43
7.364,-0.17,0.89,-0.36,-1.04,-2.10,-0.65,-0.36,0.63,-0.81,976.43
7.366,-0.17,0.89,-0.36,1.54,0.53,0.10,-0.36,0.63,-0.81,976.43
7.384,-0.07,1.03,-0.34,1.54,0.53,0.10,-0.36,0.63,-0.81,976.43
7.39,-0.07,1.03,-0.34,1.54,0.53,0.10,-0.36,0.63,-0.81,976.43
7.399,-0.05,0.95,-0.34,1.54,0.53,0.10,-0.36,0.63,-0.81,976.43
7.4,-0.05,0.95,-0.34,1.54,0.53,0.10,-0.37,0.50,-0.60,976.43
7.401,-0.05,0.95,-0.34,-0.94,0.90,0.49,-0.37,0.50,-0.60,976.43
7.418,-0.09,0.86,-0.35,-0.94,0.90,0.49,-0.37,0.50,-0.60,976.43
7.439,-0.13,0.88,-0.32,-0.94,0.90,0.49,-0.37,0.50,-0.60,976.43
7.441,-0.13,0.88,-0.32,-0.94,0.90,0.49,-0.28,0.43,-0.37,976.43
7.442,-0.13,0.88,-0.32,-0.87,0.84,0.39,-0.28,0.43,-0.37,976.43
7.446,-0.13,0.88,-0.32,-0.87,0.84,0.39,-0.28,0.43,-0.37,976.43
7.457,-0.12,0.95,-0.30,-0.87,0.84,0.39,-0.28,0.43,-0.37,976.43
7.486,-0.15,0.94,-0.32,-0.87,0.84,0.39,-0.28,0.43,-0.37,976.43
7.489,-0.15,0.94,-0.32,-0.87,0.84,0.39,-0.17,0.60,-0.26,976.43
7.49,-0.15,0.94,-0.32,-1.02,0.22,0.53,-0.17,0.60,-0.26,976.43
7.499,-0.13,0.92,-0.35,-1.02,0.22,0.53,-0.17,0.60,-0.26,976.43
7.523,-0.13,0.92,-0.35,-1.02,0.22,0.53,-0.17,0.60,-0.26,976.43
7.527,-0.03,0.96,-0.35,-1.02,0.22,0.53,-0.17,0.60,-0.26,976.43
7.53,-0.03,0.96,-0.35,-1.02,0.22,0.53,-0.06,0.43,-0.05,976.43
7.533,-0.03,0.96,-0.35,-0.93,0.61,0.40,-0.06,0.43,-0.05,976.43
7.541,-0.06,0.94,-0.37,-0.93,0.61,0.40,-0.06,0.43,-0.05,976.43
7.558,-0.06,0.94,-0.37,-1.00,0.60,0.39,-0.06,0.43,-0.05,976.43
7.561,-0.09,0.93,-0.38,-1.00,0.60,0.39,-0.06,0.43,-0.05,976.43
7.562,-0.09,0.93,-0.38,-1.00,0.60,0.39,-0.00,0.37,0.11,976.43
7.566,-0.09,0.93,-0.38,-1.00,0.60,0.39,-0.00,0.37,0.11,976.43
7.589,-0.01,0.94,-0.38,-1.00,0.60,0.39,-0.00,0.37,0.11,976.43
7.596,0.08,0.96,-0.29,-1.00,0.60,0.39,-0.00,0.37,0.11,976.43
7.598,0.08,0.96,-0.29,-1.00,0.60,0.39,-0.01,0.32,0.21,976.43
7.599,0.08,0.96,-0.29,-0.61,0.56,-0.00,-0.01,0.32,0.21,976.43
7.619,0.01,0.91,-0.32,-0.61,0.56,-0.00,-0.01,0.32,0.21,976.43
7.625,0.01,0.91,-0.32,-0.61,0.56,-0.00,-0.01,0.32,0.21,976.43
7.635,-0.03,0.91,-0.32,-0.61,0.56,-0.00,-0.01,0.32,0.21,976.43
7.639,-0.03,0.91,-0.32,-0.61,0.56,-0.00,0.01,0.31,0.25,976.43
7.639,-0.03,0.91,-0.32,-0.04,0.45,0.64,0.01,0.31,0.25,976.43
7.672,-0.06,1.02,-0.33,-0.04,0.45,0.64,0.01,0.31,0.25,976.43
7.675,-0.07,0.97,-0.38,-0.04,0.45,0.64,0.01,0.31,0.25,976.43
7.684,-0.07,0.97,-0.38,-0.04,0.45,0.64,0.09,0.34,0.29,976.43
7.685,-0.07,0.97,-0.38,-0.19,0.46,0.65,0.09,0.34,0.29,976.43
7.686,-0.07,0.97,-0.38,-0.19,0.46,0.65,0.09,0.34,0.29,976.42
7.694,0.00,0.87,-0.42,-0.19,0.46,0.65,0.09,0.34,0.29,976.42
7.714,0.02,0.94,-0.45,-0.19,0.46,0.65,0.09,0.34,0.29,976.42
7.715,0.02,0.94,-0.45,-0.19,0.46,0.65,0.11,0.21,0.43,976.42
7.715,0.02,0.94,-0.45,-0.99,0.74,0.07,0.11,0.21,0.43,976.42
7.734,-0.04,1.08,-0.52,-0.99,0.74,0.07,0.11,0.21,0.43,976.42
7.744,-0.04,1.08,-0.52,-0.99,0.74,0.07,0.11,0.21,0.43,976.42
7.754,0.18,1.15,-0.48,-0.99,0.74,0.07,0.11,0.21,0.43,976.42
7.756,0.18,1.15,-0.48,-0.99,0.74,0.07,-0.03,0.08,0.49,976.42
7.756,0.18,1.15,-0.48,-0.21,1.74,-1.00,-0.03,0.08,0.49,976.42
7.773,0.42,1.27,-0.42,-0.21,1.74,-1.00,-0.03,0.08,0.49,976.42
7.792,0.36,1.43,-0.37,-0.21,1.74,-1.00,-0.03,0.08,0.49,976.42
7.793,0.36,1.43,-0.37,-0.21,1.74,-1.00,-0.31,0.17,0.37,976.42
7.794,0.36,1.43,-0.37,-0.35,1.68,-1.09,-0.31,0.17,0.37,976.42
7.806,0.36,1.43,-0.37,-0.35,1.68,-1.09,-0.31,0.17,0.37,976.40
7.812,0.16,1.56,-0.29,-0.35,1.68,-1.09,-0.31,0.17,0.37,976.40
7.832,-0.12,1.59,-0.17,-0.35,1.68,-1.09,-0.31,0.17,0.37,976.40
7.834,-0.12,1.59,-0.17,-0.35,1.68,-1.09,-0.65,0.58,-0.14,976.40
7.836,-0.12,1.59,-0.17,2.15,5.06,-0.10,-0.65,0.58,-0.14,976.40
7.852,-0.14,1.60,-0.01,2.15,5.06,-0.10,-0.65,0.58,-0.14,976.40
7.864,-0.14,1.60,-0.01,2.15,5.06,-0.10,-0.65,0.58,-0.14,976.40
7.872,-0.23,1.38,0.11,2.15,5.06,-0.10,-0.65,0.58,-0.14,976.40
7.873,-0.23,1.38,0.11,2.15,5.06,-0.10,-0.91,0.86,-0.41,976.40
7.873,-0.23,1.38,0.11,-2.46,5.85,2.76,-0.91,0.86,-0.41,976.40
7.891,-0.80,0.84,0.05,-2.46,5.85,2.76,-0.91,0.86,-0.41,976.40
7.911,-1.04,0.96,-0.52,-2.46,5.85,2.76,-0.91,0.86,-0.41,976.40
7.912,-1.04,0.96,-0.52,-2.46,5.85,2.76,-0.72,1.32,-0.52,976.40
7.913,-1.04,0.96,-0.52,-2.38,5.66,2.41,-0.72,1.32,-0.52,976.40
7.924,-1.04,0.96,-0.52,-2.38,5.66,2.41,-0.72,1.32,-0.52,976.40
7.931,-0.52,1.29,-0.63,-2.38,5.66,2.41,-0.72,1.32,-0.52,976.40
7.95,0.25,1.18,-0.39,-2.38,5.66,2.41,-0.72,1.32,-0.52,976.40
7.951,0.25,1.18,-0.39,-2.38,5.66,2.41,0.40,-1.10,1.09,976.40
7.952,0.25,1.18,-0.39,-8.64,0.90,-0.75,0.40,-1.10,1.09,976.40
7.976,0.69,1.06,-0.26,-8.64,0.90,-0.75,0.40,-1.10,1.09,976.40
7.984,0.69,1.06,-0.26,-8.64,0.90,-0.75,0.40,-1.10,1.09,976.38
7.99,0.85,1.25,-0.27,-8.64,0.90,-0.75,0.40,-1.10,1.09,976.38
7.991,0.85,1.25,-0.27,-8.64,0.90,-0.75,1.04,-2.09,2.71,976.38
7.991,0.85,1.25,-0.27,4.15,2.40,0.35,1.04,-2.09,2.71,976.38
8.01,0.62,1.43,-0.34,4.15,2.40,0.35,1.04,-2.09,2.71,976.38
8.03,0.20,1.34,-0.37,4.15,2.40,0.35,1.04,-2.09,2.71,976.38
8.032,0.20,1.34,-0.37,4.15,2.40,0.35,1.30,0.59,2.29,976.38
8.032,0.20,1.34,-0.37,3.21,2.73,0.73,1.30,0.59,2.29,976.38
8.044,0.20,1.34,-0.37,3.21,2.73,0.73,1.30,0.59,2.29,976.36
8.051,0.03,1.13,-0.37,3.21,2.73,0.73,1.30,0.59,2.29,976.36
8.07,0.20,0.99,-0.34,3.21,2.73,0.73,1.30,0.59,2.29,976.36
8.072,0.20,0.99,-0.34,3.21,2.73,0.73,1.23,2.04,2.14,976.36
8.072,0.20,0.99,-0.34,-0.88,4.47,0.35,1.23,2.04,2.14,976.36
8.089,0.34,0.91,-0.31,-0.88,4.47,0.35,1.23,2.04,2.14,976.36
8.105,0.34,0.91,-0.31,-0.88,4.47,0.35,1.23,2.04,2.14,976.36
8.108,0.35,0.82,-0.31,-0.88,4.47,0.35,1.23,2.04,2.14,976.36
8.109,0.35,0.82,-0.31,-1.69,1.08,0.73,1.23,2.04,2.14,976.36
8.11,0.35,0.82,-0.31,-1.69,1.08,0.73,1.00,1.67,2.27,976.36
8.13,0.34,0.73,-0.30,-1.69,1.08,0.73,1.00,1.67,2.27,976.36
8.149,0.31,0.70,-0.34,-1.69,1.08,0.73,1.00,1.67,2.27,976.36
8.15,0.31,0.70,-0.34,-1.69,1.08,0.73,0.86,1.51,1.82,976.36
8.151,0.31,0.70,-0.34,-2.42,1.55,0.68,0.86,1.51,1.82,976.36
8.164,0.31,0.70,-0.34,-2.42,1.55,0.68,0.86,1.51,1.82,976.36
8.168,0.27,0.71,-0.34,-2.42,1.55,0.68,0.86,1.51,1.82,976.36
8.188,0.23,0.67,-0.39,-2.42,1.55,0.68,0.86,1.51,1.82,976.36
8.189,0.23,0.67,-0.39,-2.42,1.55,0.68,0.71,1.11,1.34,976.36
8.19,0.23,0.67,-0.39,-2.83,0.07,0.58,0.71,1.11,1.34,976.36
8.207,0.26,0.58,-0.38,-2.83,0.07,0.58,0.71,1.11,1.34,976.36
8.224,0.26,0.58,-0.38,-2.83,0.07,0.58,0.71,1.11,1.34,976.35
8.227,0.29,0.49,-0.37,-2.83,0.07,0.58,0.71,1.11,1.34,976.35
8.228,0.29,0.49,-0.37,-2.83,0.07,0.58,0.50,0.17,1.05,976.35
8.229,0.29,0.49,-0.37,-3.50,-0.89,0.17,0.50,0.17,1.05,976.35
8.247,0.33,0.41,-0.46,-3.50,-0.89,0.17,0.50,0.17,1.05,976.35
8.267,0.41,0.36,-0.46,-3.50,-0.89,0.17,0.50,0.17,1.05,976.35
8.267,0.41,0.36,-0.46,-3.50,-0.89,0.17,0.29,-1.00,0.58,976.35
8.268,0.41,0.36,-0.46,-3.43,-0.69,0.48,0.29,-1.00,0.58,976.35
8.284,0.41,0.36,-0.46,-3.43,-0.69,0.48,0.29,-1.00,0.58,976.34
8.286,0.44,0.30,-0.49,-3.43,-0.69,0.48,0.29,-1.00,0.58,976.34
8.306,0.37,0.24,-0.47,-3.43,-0.69,0.48,0.29,-1.00,0.58,976.34
8.308,0.37,0.24,-0.47,-3.43,-0.69,0.48,-0.11,-1.44,-0.16,976.34
8.308,0.37,0.24,-0.47,-1.82,-2.90,-0.12,-0.11,-1.44,-0.16,976.34
8.326,0.33,0.24,-0.43,-1.82,-2.90,-0.12,-0.11,-1.44,-0.16,976.34
8.344,0.33,0.24,-0.43,-1.82,-2.90,-0.12,-0.11,-1.44,-0.16,976.35
8.345,0.36,0.30,-0.36,-1.82,-2.90,-0.12,-0.11,-1.44,-0.16,976.35
8.346,0.36,0.30,-0.36,-1.82,-2.90,-0.12,-0.61,-0.97,-0.95,976.35
8.347,0.36,0.30,-0.36,-1.80,-4.08,0.42,-0.61,-0.97,-0.95,976.35
8.366,0.39,0.37,-0.33,-1.80,-4.08,0.42,-0.61,-0.97,-0.95,976.35
8.392,0.30,0.41,-0.31,-1.80,-4.08,0.42,-0.61,-0.97,-0.95,976.35
8.393,0.30,0.41,-0.31,-1.80,-4.08,0.42,-0.80,-0.27,-1.51,976.35
8.394,0.30,0.41,-0.31,-1.31,-4.44,0.25,-0.80,-0.27,-1.51,976.35
8.404,0.30,0.41,-0.31,-1.31,-4.44,0.25,-0.80,-0.27,-1.51,976.35
8.406,0.21,0.40,-0.33,-1.31,-4.44,0.25,-0.80,-0.27,-1.51,976.35
8.425,0.29,0.37,-0.33,-1.31,-4.44,0.25,-0.80,-0.27,-1.51,976.35
8.425,0.29,0.37,-0.33,-1.31,-4.44,0.25,-0.77,-0.31,-1.98,976.35
8.426,0.29,0.37,-0.33,-1.17,-3.56,1.04,-0.77,-0.31,-1.98,976.35
8.445,0.44,0.44,-0.31,-1.17,-3.56,1.04,-0.77,-0.31,-1.98,976.35
8.464,0.44,0.44,-0.31,-1.17,-3.56,1.04,-0.77,-0.31,-1.98,976.36
8.464,0.46,0.53,-0.30,-1.17,-3.56,1.04,-0.77,-0.31,-1.98,976.36
8.464,0.46,0.53,-0.30,-1.17,-3.56,1.04,-0.83,-0.89,-2.13,976.36
8.465,0.46,0.53,-0.30,0.57,-3.46,0.98,-0.83,-0.89,-2.13,976.36
8.485,0.41,0.49,-0.34,0.57,-3.46,0.98,-0.83,-0.89,-2.13,976.36
8.504,0.41,0.46,-0.46,0.57,-3.46,0.98,-0.83,-0.89,-2.13,976.36
8.506,0.41,0.46,-0.46,0.57,-3.46,0.98,-0.71,-0.56,-2.11,976.36
8.507,0.41,0.46,-0.46,1.31,-3.76,0.80,-0.71,-0.56,-2.11,976.36
8.527,0.41,0.46,-0.46,1.31,-3.76,0.80,-0.71,-0.56,-2.11,976.37
8.53,0.53,0.58,-0.42,1.31,-3.76,0.80,-0.71,-0.56,-2.11,976.37
8.546,0.59,0.63,-0.45,1.31,-3.76,0.80,-0.71,-0.56,-2.11,976.37
8.55,0.59,0.63,-0.45,1.31,-3.76,0.80,-0.48,-0.69,-1.72,976.37
8.552,0.59,0.63,-0.45,2.45,-3.28,-0.20,-0.48,-0.69,-1.72,976.37
8.564,0.54,0.58,-0.50,2.45,-3.28,-0.20,-0.48,-0.69,-1.72,976.37
8.597,0.48,0.55,-0.45,2.45,-3.28,-0.20,-0.48,-0.69,-1.72,976.37
8.599,0.48,0.55,-0.45,2.45,-3.28,-0.20,-0.25,-0.70,-1.12,976.37
8.6,0.48,0.55,-0.45,2.45,-3.28,-0.20,-0.25,-0.70,-1.12,976.38
8.6,0.48,0.55,-0.45,3.69,-2.59,-0.81,-0.25,-0.70,-1.12,976.38
8.604,0.40,0.49,-0.46,3.69,-2.59,-0.81,-0.25,-0.70,-1.12,976.38
8.634,0.46,0.35,-0.44,3.69,-2.59,-0.81,-0.25,-0.70,-1.12,976.38
8.637,0.46,0.35,-0.44,3.69,-2.59,-0.81,-0.05,-0.98,-0.61,976.38
8.639,0.46,0.35,-0.44,3.97,-2.59,-0.76,-0.05,-0.98,-0.61,976.38
8.645,0.58,0.19,-0.36,3.97,-2.59,-0.76,-0.05,-0.98,-0.61,976.38
8.647,0.58,0.19,-0.36,3.97,-2.59,-0.76,-0.05,-0.98,-0.61,976.38
8.662,0.51,-0.05,-1.18,3.97,-2.59,-0.76,-0.05,-0.98,-0.61,976.38
8.664,0.51,-0.05,-1.18,3.97,-2.59,-0.76,-0.01,-1.25,-0.47,976.38
8.666,0.51,-0.05,-1.18,3.72,-4.91,-0.24,-0.01,-1.25,-0.47,976.38
8.689,1.13,4.64,-1.33,3.72,-4.91,-0.24,-0.01,-1.25,-0.47,976.38
8.702,1.54,3.41,1.70,3.72,-4.91,-0.24,-0.01,-1.25,-0.47,976.38
8.705,1.54,3.41,1.70,3.72,-4.91,-0.24,0.05,-1.03,0.83,976.38
8.707,1.54,3.41,1.70,9.13,17.62,1.27,0.05,-1.03,0.83,976.38
8.708,1.54,3.41,1.70,9.13,17.62,1.27,0.05,-1.03,0.83,976.36
8.722,-2.23,-2.09,-1.83,9.13,17.62,1.27,0.05,-1.03,0.83,976.36
8.742,-0.59,-1.18,-1.10,9.13,17.62,1.27,0.05,-1.03,0.83,976.36
8.744,-0.59,-1.18,-1.10,9.13,17.62,1.27,0.47,0.56,-0.22,976.36
8.745,-0.59,-1.18,-1.10,8.96,17.39,1.37,0.47,0.56,-0.22,976.36
8.762,1.89,1.84,0.10,8.96,17.39,1.37,0.47,0.56,-0.22,976.36
8.764,1.89,1.84,0.10,8.96,17.39,1.37,0.47,0.56,-0.22,976.35
8.789,1.63,2.76,-0.32,8.96,17.39,1.37,0.47,0.56,-0.22,976.35
8.792,1.63,2.76,-0.32,8.96,17.39,1.37,-0.49,-1.89,1.04,976.35
8.793,1.63,2.76,-0.32,-4.47,-13.21,-5.22,-0.49,-1.89,1.04,976.35
8.802,0.22,0.73,-0.40,-4.47,-13.21,-5.22,-0.49,-1.89,1.04,976.35
8.83,-0.15,0.04,-0.49,-4.47,-13.21,-5.22,-0.49,-1.89,1.04,976.35
8.833,-0.15,0.04,-0.49,-4.47,-13.21,-5.22,-0.18,-0.01,-0.41,976.35
8.835,-0.15,0.04,-0.49,4.19,2.88,0.05,-0.18,-0.01,-0.41,976.35
8.837,-0.15,0.04,-0.49,4.19,2.88,0.05,-0.18,-0.01,-0.41,976.36
8.841,-0.24,0.72,-0.45,4.19,2.88,0.05,-0.18,-0.01,-0.41,976.36
8.861,0.12,1.29,-0.47,4.19,2.88,0.05,-0.18,-0.01,-0.41,976.36
8.863,0.12,1.29,-0.47,4.19,2.88,0.05,-0.08,0.28,-0.99,976.36
8.864,0.12,1.29,-0.47,4.41,2.77,0.01,-0.08,0.28,-0.99,976.36
8.895,0.65,1.22,-0.46,4.41,2.77,0.01,-0.08,0.28,-0.99,976.36
8.898,0.65,1.22,-0.46,4.41,2.77,0.01,-0.08,0.28,-0.99,976.38
8.903,0.65,1.22,-0.46,0.87,1.69,-0.64,-0.08,0.28,-0.99,976.38
8.905,0.19,0.83,-0.44,0.87,1.69,-0.64,-0.08,0.28,-0.99,976.38
8.907,0.19,0.83,-0.44,0.87,1.69,-0.64,-0.32,-0.36,-0.57,976.38
8.928,-0.40,0.71,-0.43,0.87,1.69,-0.64,-0.32,-0.36,-0.57,976.38
8.94,-0.34,0.86,-0.34,0.87,1.69,-0.64,-0.32,-0.36,-0.57,976.38
8.942,-0.34,0.86,-0.34,0.87,1.69,-0.64,-0.31,0.52,-0.94,976.38
8.944,-0.34,0.86,-0.34,-2.39,-1.09,-0.22,-0.31,0.52,-0.94,976.38
8.945,-0.34,0.86,-0.34,-2.39,-1.09,-0.22,-0.31,0.52,-0.94,976.38
8.959,0.01,1.00,-0.28,-2.39,-1.09,-0.22,-0.31,0.52,-0.94,976.38
8.985,0.08,0.97,-0.27,-2.39,-1.09,-0.22,-0.31,0.52,-0.94,976.38
8.987,0.08,0.97,-0.27,-2.39,-1.09,-0.22,-0.33,0.17,-0.50,976.38
8.988,0.08,0.97,-0.27,-2.20,-1.13,-0.33,-0.33,0.17,-0.50,976.38
9.03,-0.10,0.89,-0.32,-2.20,-1.13,-0.33,-0.33,0.17,-0.50,976.38
9.033,-0.10,0.89,-0.32,-2.20,-1.13,-0.33,-0.33,0.17,-0.50,976.38
9.035,-0.12,0.91,-0.33,-2.20,-1.13,-0.33,-0.33,0.17,-0.50,976.38
9.037,-0.12,0.91,-0.33,-2.20,-1.13,-0.33,-0.19,0.06,-0.30,976.38
9.039,-0.12,0.91,-0.33,-0.33,0.30,0.71,-0.19,0.06,-0.30,976.38
9.041,-0.12,0.94,-0.33,-0.33,0.30,0.71,-0.19,0.06,-0.30,976.38
9.06,-0.12,0.94,-0.33,-1.55,0.07,0.27,-0.19,0.06,-0.30,976.38
9.064,-0.16,0.94,-0.33,-1.55,0.07,0.27,-0.19,0.06,-0.30,976.38
9.065,-0.16,0.94,-0.33,-1.55,0.07,0.27,-0.11,0.17,-0.20,976.38
9.066,-0.16,0.94,-0.33,-1.55,0.07,0.27,-0.11,0.17,-0.20,976.38
9.086,-0.09,0.93,-0.30,-1.55,0.07,0.27,-0.11,0.17,-0.20,976.38
9.118,-0.09,0.93,-0.30,-1.55,0.06,0.25,-0.11,0.17,-0.20,976.38
9.12,-0.04,0.94,-0.32,-1.55,0.06,0.25,-0.11,0.17,-0.20,976.38
9.122,-0.04,0.94,-0.32,-1.55,0.06,0.25,-0.04,0.09,0.05,976.38
9.123,-0.04,0.95,-0.32,-1.55,0.06,0.25,-0.04,0.09,0.05,976.38
9.128,-0.04,0.95,-0.32,-1.55,0.06,0.25,-0.04,0.09,0.05,976.39
9.137,-0.04,0.95,-0.32,-1.55,0.06,0.25,-0.04,0.09,0.05,976.39
9.138,-0.04,0.95,-0.32,-1.55,0.06,0.25,0.04,-0.02,0.22,976.39
9.139,-0.04,0.95,-0.32,-0.87,0.18,0.41,0.04,-0.02,0.22,976.39
9.156,0.03,0.93,-0.33,-0.87,0.18,0.41,0.04,-0.02,0.22,976.39
9.181,0.07,0.96,-0.31,-0.87,0.18,0.41,0.04,-0.02,0.22,976.39
9.185,0.07,0.96,-0.31,-0.87,0.18,0.41,0.12,0.14,0.30,976.39
9.187,0.07,0.96,-0.31,-0.21,0.28,0.39,0.12,0.14,0.30,976.39
9.19,0.07,0.96,-0.31,-0.21,0.28,0.39,0.12,0.14,0.30,976.39
9.211,-0.05,0.97,-0.31,-0.21,0.28,0.39,0.12,0.14,0.30,976.39
9.218,-0.10,0.91,-0.33,-0.21,0.28,0.39,0.12,0.14,0.30,976.39
9.219,-0.10,0.91,-0.33,-0.21,0.28,0.39,0.20,0.35,0.33,976.39
9.22,-0.10,0.91,-0.33,-0.37,0.31,0.45,0.20,0.35,0.33,976.39
9.235,0.01,0.92,-0.34,-0.37,0.31,0.45,0.20,0.35,0.33,976.39
9.243,0.01,0.92,-0.34,-0.37,0.31,0.45,0.20,0.35,0.33,976.38
9.256,0.02,0.94,-0.34,-0.37,0.31,0.45,0.20,0.35,0.33,976.38
9.257,0.02,0.94,-0.34,-0.37,0.31,0.45,0.29,0.25,0.49,976.38
9.258,0.02,0.94,-0.34,-1.24,0.22,0.48,0.29,0.25,0.49,976.38
9.287,-0.04,0.92,-0.36,-1.24,0.22,0.48,0.29,0.25,0.49,976.38
9.315,0.06,0.90,-0.34,-1.24,0.22,0.48,0.29,0.25,0.49,976.38
9.318,0.06,0.90,-0.34,-1.24,0.22,0.48,0.36,0.17,0.64,976.38
9.319,0.06,0.90,-0.34,-0.88,0.17,0.41,0.36,0.17,0.64,976.38
9.32,0.06,0.90,-0.34,-0.88,0.17,0.41,0.36,0.17,0.64,976.38
9.32,0.11,0.90,-0.41,-0.88,0.17,0.41,0.36,0.17,0.64,976.38
9.334,0.08,0.93,-0.44,-0.88,0.17,0.41,0.36,0.17,0.64,976.38
9.336,0.08,0.93,-0.44,-0.88,0.17,0.41,0.39,0.12,0.75,976.38
9.336,0.08,0.93,-0.44,-1.14,0.26,0.53,0.39,0.12,0.75,976.38
9.354,0.10,1.00,-0.46,-1.14,0.26,0.53,0.39,0.12,0.75,976.38
9.364,0.10,1.00,-0.46,-1.14,0.26,0.53,0.39,0.12,0.75,976.38
9.378,0.23,1.09,-0.51,-1.14,0.26,0.53,0.39,0.12,0.75,976.38
9.382,0.23,1.09,-0.51,-1.14,0.26,0.53,0.39,0.18,0.76,976.38
9.384,0.23,1.09,-0.51,-0.59,0.57,-0.25,0.39,0.18,0.76,976.38
9.397,0.36,1.15,-0.60,-0.59,0.57,-0.25,0.39,0.18,0.76,976.38
9.433,0.43,1.31,-0.60,-0.59,0.57,-0.25,0.39,0.18,0.76,976.38
9.436,0.43,1.31,-0.60,-0.59,0.57,-0.25,0.26,0.27,0.65,976.38
9.439,0.43,1.31,-0.60,1.47,2.95,-1.47,0.26,0.27,0.65,976.38
9.439,0.43,1.31,-0.60,1.47,2.95,-1.47,0.26,0.27,0.65,976.38
9.444,0.45,1.56,-0.41,1.47,2.95,-1.47,0.26,0.27,0.65,976.38
9.453,0.27,1.58,-0.47,1.47,2.95,-1.47,0.26,0.27,0.65,976.38
9.454,0.27,1.58,-0.47,1.47,2.95,-1.47,-0.14,0.50,0.26,976.38
9.455,0.27,1.58,-0.47,1.28,2.90,-1.53,-0.14,0.50,0.26,976.38
9.473,0.03,1.82,-0.26,1.28,2.90,-1.53,-0.14,0.50,0.26,976.38
9.488,0.03,1.82,-0.26,1.28,2.90,-1.53,-0.14,0.50,0.26,976.38
9.52,0.18,1.97,-0.09,1.28,2.90,-1.53,-0.14,0.50,0.26,976.38
9.523,0.18,1.97,-0.09,1.28,2.90,-1.53,-0.59,0.54,-0.11,976.38
9.525,0.18,1.97,-0.09,0.40,7.29,0.08,-0.59,0.54,-0.11,976.38
9.527,-0.14,1.40,-0.30,0.40,7.29,0.08,-0.59,0.54,-0.11,976.38
9.533,-0.85,0.58,-0.04,0.40,7.29,0.08,-0.59,0.54,-0.11,976.38
9.536,-0.85,0.58,-0.04,0.40,7.29,0.08,-0.84,1.53,-0.57,976.38
9.538,-0.85,0.58,-0.04,-4.67,3.75,1.93,-0.84,1.53,-0.57,976.38
9.544,-0.85,0.58,-0.04,-4.67,3.75,1.93,-0.84,1.53,-0.57,976.39
9.552,-1.07,0.63,-0.77,-4.67,3.75,1.93,-0.84,1.53,-0.57,976.39
9.572,0.02,1.33,-0.70,-4.67,3.75,1.93,-0.84,1.53,-0.57,976.39
9.574,0.02,1.33,-0.70,-4.67,3.75,1.93,-0.12,1.80,0.06,976.39
9.575,0.02,1.33,-0.70,-4.84,3.68,1.70,-0.12,1.80,0.06,976.39
9.599,1.38,1.65,-0.35,-4.84,3.68,1.70,-0.12,1.80,0.06,976.39
9.62,1.38,1.65,-0.35,-4.84,3.68,1.70,-0.12,1.80,0.06,976.39
9.621,0.37,1.40,-0.36,-4.84,3.68,1.70,-0.12,1.80,0.06,976.39
9.622,0.37,1.40,-0.36,-4.84,3.68,1.70,1.05,1.42,2.50,976.39
9.623,0.37,1.40,-0.36,-2.14,2.95,-2.57,1.05,1.42,2.50,976.39
9.631,-0.33,1.30,-0.56,-2.14,2.95,-2.57,1.05,1.42,2.50,976.39
9.65,0.02,1.45,-0.29,-2.14,2.95,-2.57,1.05,1.42,2.50,976.39
9.653,0.02,1.45,-0.29,-2.14,2.95,-2.57,1.27,3.13,2.54,976.39
9.653,0.02,1.45,-0.29,-4.24,5.16,-0.57,1.27,3.13,2.54,976.39
9.663,0.02,1.45,-0.29,-4.24,5.16,-0.57,1.27,3.13,2.54,976.38
9.67,0.14,1.25,-0.21,-4.24,5.16,-0.57,1.27,3.13,2.54,976.38
9.69,0.12,0.84,-0.10,-4.24,5.16,-0.57,1.27,3.13,2.54,976.38
9.691,0.12,0.84,-0.10,-4.24,5.16,-0.57,0.95,2.09,3.04,976.38
9.692,0.12,0.84,-0.10,-5.39,5.79,-0.67,0.95,2.09,3.04,976.38
9.714,0.17,0.57,-0.07,-5.39,5.79,-0.67,0.95,2.09,3.04,976.38
9.723,0.17,0.57,-0.07,-5.39,5.79,-0.67,0.95,2.09,3.04,976.36
9.733,0.14,0.48,-0.12,-5.39,5.79,-0.67,0.95,2.09,3.04,976.36
9.734,0.14,0.48,-0.12,-5.39,5.79,-0.67,0.68,0.40,2.51,976.36
9.735,0.14,0.48,-0.12,-4.91,1.61,2.07,0.68,0.40,2.51,976.36
9.749,0.13,0.50,-0.12,-4.91,1.61,2.07,0.68,0.40,2.51,976.36
9.769,0.14,0.55,-0.07,-4.91,1.61,2.07,0.68,0.40,2.51,976.36
9.77,0.14,0.55,-0.07,-4.91,1.61,2.07,0.45,-0.63,1.64,976.36
9.772,0.14,0.55,-0.07,-5.19,-1.61,2.54,0.45,-0.63,1.64,976.36
9.789,0.14,0.55,-0.07,-5.19,-1.61,2.54,0.45,-0.63,1.64,976.35
9.792,0.10,0.55,-0.07,-5.19,-1.61,2.54,0.45,-0.63,1.64,976.35
9.811,0.02,0.48,-0.08,-5.19,-1.61,2.54,0.45,-0.63,1.64,976.35
9.813,0.02,0.48,-0.08,-5.19,-1.61,2.54,0.07,-0.80,0.64,976.35
9.813,0.02,0.48,-0.08,-5.15,-1.41,2.73,0.07,-0.80,0.64,976.35
9.828,-0.00,0.45,-0.12,-5.15,-1.41,2.73,0.07,-0.80,0.64,976.35
9.843,-0.00,0.45,-0.12,-5.15,-1.41,2.73,0.07,-0.80,0.64,976.36
9.848,0.09,0.47,-0.15,-5.15,-1.41,2.73,0.07,-0.80,0.64,976.36
9.849,0.09,0.47,-0.15,-5.15,-1.41,2.73,-0.30,-0.96,-0.36,976.36
9.849,0.09,0.47,-0.15,-5.81,-1.71,3.02,-0.30,-0.96,-0.36,976.36
9.868,0.19,0.52,-0.18,-5.81,-1.71,3.02,-0.30,-0.96,-0.36,976.36
9.897,0.21,0.52,-0.18,-5.81,-1.71,3.02,-0.30,-0.96,-0.36,976.36
9.9,0.21,0.52,-0.18,-5.81,-1.71,3.02,-0.71,-1.04,-1.18,976.36
9.901,0.21,0.52,-0.18,-4.06,-1.93,2.21,-0.71,-1.04,-1.18,976.36
9.903,0.21,0.52,-0.18,-4.06,-1.93,2.21,-0.71,-1.04,-1.18,976.34
9.908,0.21,0.50,-0.21,-4.06,-1.93,2.21,-0.71,-1.04,-1.18,976.34
9.927,0.21,0.50,-0.28,-4.06,-1.93,2.21,-0.71,-1.04,-1.18,976.34
9.929,0.21,0.50,-0.28,-4.06,-1.93,2.21,-1.14,-0.71,-2.05,976.34
9.93,0.21,0.50,-0.28,-3.32,-2.49,2.00,-1.14,-0.71,-2.05,976.34
9.946,0.19,0.52,-0.24,-3.32,-2.49,2.00,-1.14,-0.71,-2.05,976.34
9.963,0.19,0.52,-0.24,-3.32,-2.49,2.00,-1.14,-0.71,-2.05,976.32
9.968,0.16,0.55,-0.24,-3.32,-2.49,2.00,-1.14,-0.71,-2.05,976.32
9.969,0.16,0.55,-0.24,-3.32,-2.49,2.00,-1.56,-0.85,-2.97,976.32
9.971,0.16,0.55,-0.24,-1.84,-3.16,0.93,-1.56,-0.85,-2.97,976.32
9.987,0.21,0.62,-0.34,-1.84,-3.16,0.93,-1.56,-0.85,-2.97,976.32
10.014,0.36,0.74,-0.46,-1.84,-3.16,0.93,-1.56,-0.85,-2.97,976.32
10.017,0.36,0.74,-0.46,-1.84,-3.16,0.93,-1.89,-1.39,-3.65,976.32
10.019,0.36,0.74,-0.46,-0.03,-2.53,-0.53,-1.89,-1.39,-3.65,976.32
10.024,0.36,0.74,-0.46,-0.03,-2.53,-0.53,-1.89,-1.39,-3.65,976.30
10.025,0.45,0.81,-0.41,-0.03,-2.53,-0.53,-1.89,-1.39,-3.65,976.30
10.055,0.56,0.83,-0.55,-0.03,-2.53,-0.53,-1.89,-1.39,-3.65,976.30
10.059,0.56,0.83,-0.55,-0.03,-2.53,-0.53,-2.21,-1.68,-4.11,976.30
10.061,0.56,0.83,-0.55,1.58,-2.97,-1.19,-2.21,-1.68,-4.11,976.30
10.066,0.66,0.92,-0.62,1.58,-2.97,-1.19,-2.21,-1.68,-4.11,976.30
10.082,0.66,0.92,-0.62,1.58,-2.97,-1.19,-2.21,-1.68,-4.11,976.30
10.085,0.72,1.08,-0.70,1.58,-2.97,-1.19,-2.21,-1.68,-4.11,976.30
10.086,0.72,1.08,-0.70,1.58,-2.97,-1.19,-2.24,-1.24,-4.20,976.30
10.086,0.72,1.08,-0.70,6.13,-0.97,-3.69,-2.24,-1.24,-4.20,976.30
10.105,0.77,1.17,-0.82,6.13,-0.97,-3.69,-2.24,-1.24,-4.20,976.30
10.127,0.97,1.16,-0.81,6.13,-0.97,-3.69,-2.24,-1.24,-4.20,976.30
10.129,0.97,1.16,-0.81,6.13,-0.97,-3.69,-1.62,-0.56,-3.63,976.30
10.13,0.97,1.16,-0.81,9.95,1.93,-6.65,-1.62,-0.56,-3.63,976.30
10.144,0.97,1.16,-0.81,9.95,1.93,-6.65,-1.62,-0.56,-3.63,976.32
10.146,0.88,1.08,-0.67,9.95,1.93,-6.65,-1.62,-0.56,-3.63,976.32
10.165,0.59,1.02,-0.64,9.95,1.93,-6.65,-1.62,-0.56,-3.63,976.32
10.169,0.59,1.02,-0.64,9.95,1.93,-6.65,-0.65,0.58,-2.33,976.32
10.171,0.59,1.02,-0.64,10.59,2.08,-6.71,-0.65,0.58,-2.33,976.32
10.184,0.35,0.94,-0.55,10.59,2.08,-6.71,-0.65,0.58,-2.33,976.32
10.215,0.35,0.94,-0.55,10.59,2.08,-6.71,-0.65,0.58,-2.33,976.35
10.219,0.13,1.10,-0.47,10.59,2.08,-6.71,-0.65,0.58,-2.33,976.35
10.22,0.13,1.10,-0.47,10.59,2.08,-6.71,0.44,0.70,-0.27,976.35
10.22,0.13,1.10,-0.47,8.42,0.89,-4.88,0.44,0.70,-0.27,976.35
10.253,-1.86,2.18,2.45,8.42,0.89,-4.88,0.44,0.70,-0.27,976.35
10.256,-2.51,1.89,-1.34,8.42,0.89,-4.88,0.44,0.70,-0.27,976.35
10.26,-2.51,1.89,-1.34,8.42,0.89,-4.88,0.53,-0.05,0.28,976.35
10.263,-2.51,1.89,-1.34,-11.31,7.70,3.45,0.53,-0.05,0.28,976.35
10.264,-2.51,1.89,-1.34,-11.31,7.70,3.45,0.53,-0.05,0.28,976.37
10.265,-0.44,0.30,-1.04,-11.31,7.70,3.45,0.53,-0.05,0.28,976.37
10.282,3.72,0.91,0.03,-11.31,7.70,3.45,0.53,-0.05,0.28,976.37
10.284,3.72,0.91,0.03,-11.31,7.70,3.45,1.18,-4.21,1.63,976.37
10.285,3.72,0.91,0.03,-11.48,7.49,3.43,1.18,-4.21,1.63,976.37
10.301,1.31,1.02,-0.50,-11.48,7.49,3.43,1.18,-4.21,1.63,976.37
10.321,1.31,1.02,-0.50,-11.48,7.49,3.43,1.18,-4.21,1.63,976.37
10.323,-1.09,0.98,-0.33,-11.48,7.49,3.43,1.18,-4.21,1.63,976.37
10.323,-1.09,0.98,-0.33,-11.48,7.49,3.43,1.28,-0.33,1.92,976.37
10.324,-1.09,0.98,-0.33,16.40,-2.14,-3.13,1.28,-0.33,1.92,976.37
10.343,-0.65,1.08,-0.46,16.40,-2.14,-3.13,1.28,-0.33,1.92,976.37
10.364,-0.46,0.98,-0.47,16.40,-2.14,-3.13,1.28,-0.33,1.92,976.37
10.367,-0.46,0.98,-0.47,16.40,-2.14,-3.13,0.99,2.65,-0.20,976.37
10.369,-0.46,0.98,-0.47,-5.84,0.58,-1.77,0.99,2.65,-0.20,976.37
10.382,0.05,0.97,-0.26,-5.84,0.58,-1.77,0.99,2.65,-0.20,976.37
10.385,0.05,0.97,-0.26,-5.84,0.58,-1.77,0.99,2.65,-0.20,976.36
10.419,0.07,0.93,-0.23,-5.84,0.58,-1.77,0.99,2.65,-0.20,976.36
10.422,0.07,0.93,-0.23,-5.84,0.58,-1.77,0.47,-0.25,0.90,976.36
10.423,0.07,0.93,-0.23,-6.04,0.57,-1.58,0.47,-0.25,0.90,976.36
10.453,0.02,0.97,-0.32,-6.04,0.57,-1.58,0.47,-0.25,0.90,976.36
10.455,0.29,1.03,-0.33,-6.04,0.57,-1.58,0.47,-0.25,0.90,976.36
10.456,0.29,1.03,-0.33,-6.04,0.57,-1.58,0.41,-0.62,0.77,976.36
10.458,0.29,1.03,-0.33,1.35,0.01,0.03,0.41,-0.62,0.77,976.36
10.459,0.29,1.03,-0.33,1.35,0.01,0.03,0.41,-0.62,0.77,976.35
10.461,0.23,1.04,-0.29,1.35,0.01,0.03,0.41,-0.62,0.77,976.35
10.489,-0.26,0.96,-0.25,1.35,0.01,0.03,0.41,-0.62,0.77,976.35
10.491,-0.26,0.96,-0.25,1.35,0.01,0.03,0.37,0.83,0.26,976.35
10.492,-0.26,0.96,-0.25,1.54,0.56,-0.01,0.37,0.83,0.26,976.35
10.514,-0.45,0.91,-0.29,1.54,0.56,-0.01,0.37,0.83,0.26,976.35
10.516,-0.45,0.91,-0.29,1.54,0.56,-0.01,0.37,0.83,0.26,976.35
10.521,-0.24,0.93,-0.33,1.54,0.56,-0.01,0.37,0.83,0.26,976.35
10.523,-0.24,0.93,-0.33,1.54,0.56,-0.01,0.33,0.66,0.18,976.35
10.524,-0.24,0.93,-0.33,1.37,0.59,0.13,0.33,0.66,0.18,976.35
10.54,-0.01,0.97,-0.28,1.37,0.59,0.13,0.33,0.66,0.18,976.35
10.562,0.02,0.99,-0.24,1.37,0.59,0.13,0.33,0.66,0.18,976.35
10.566,0.02,0.99,-0.24,1.37,0.59,0.13,0.32,-0.07,0.66,976.35
10.569,0.02,0.99,-0.24,-1.96,-0.09,0.11,0.32,-0.07,0.66,976.35
10.571,0.02,0.99,-0.24,-1.96,-0.09,0.11,0.32,-0.07,0.66,976.35
10.579,-0.14,0.92,-0.26,-1.96,-0.09,0.11,0.32,-0.07,0.66,976.35
10.616,-0.14,0.93,-0.29,-1.96,-0.09,0.11,0.32,-0.07,0.66,976.35
10.619,-0.14,0.93,-0.29,-1.96,-0.09,0.11,0.41,0.42,0.70,976.35
10.62,-0.14,0.93,-0.29,-0.83,0.04,0.61,0.41,0.42,0.70,976.35
10.621,0.02,0.98,-0.34,-0.83,0.04,0.61,0.41,0.42,0.70,976.35
10.622,0.02,0.98,-0.34,-0.83,0.04,0.61,0.41,0.42,0.70,976.34
10.647,0.17,1.00,-0.35,-0.83,0.04,0.61,0.41,0.42,0.70,976.34
10.65,0.17,1.00,-0.35,-0.83,0.04,0.61,0.45,0.22,0.83,976.34
10.651,0.17,1.00,-0.35,-1.14,0.11,0.76,0.45,0.22,0.83,976.34
10.657,0.21,1.02,-0.38,-1.14,0.11,0.76,0.45,0.22,0.83,976.34
10.689,0.07,1.02,-0.39,-1.14,0.11,0.76,0.45,0.22,0.83,976.34
10.691,0.07,1.02,-0.39,-1.14,0.11,0.76,0.43,0.38,0.79,976.34
10.692,0.07,1.02,-0.39,0.65,0.72,-0.00,0.43,0.38,0.79,976.34
10.693,0.07,1.02,-0.39,0.65,0.72,-0.00,0.43,0.38,0.79,976.34
10.71,-0.10,1.02,-0.39,0.65,0.72,-0.00,0.43,0.38,0.79,976.34
10.717,-0.05,1.08,-0.37,0.65,0.72,-0.00,0.43,0.38,0.79,976.34
10.718,-0.05,1.08,-0.37,0.65,0.72,-0.00,0.38,0.76,0.67,976.34
10.719,-0.05,1.08,-0.37,-1.22,1.13,-0.15,0.38,0.76,0.67,976.34
10.736,0.01,1.19,-0.36,-1.22,1.13,-0.15,0.38,0.76,0.67,976.34
10.741,0.01,1.19,-0.36,-1.22,1.13,-0.15,0.38,0.76,0.67,976.34
10.757,0.00,1.35,-0.30,-1.22,1.13,-0.15,0.38,0.76,0.67,976.34
10.76,0.00,1.35,-0.30,-1.22,1.13,-0.15,0.36,0.78,0.86,976.34
10.761,0.00,1.35,-0.30,-1.61,1.20,-0.06,0.36,0.78,0.86,976.34
10.78,0.08,1.51,-0.21,-1.61,1.20,-0.06,0.36,0.78,0.86,976.34
10.798,0.18,1.65,-0.12,-1.61,1.20,-0.06,0.36,0.78,0.86,976.34
10.803,0.18,1.65,-0.12,-1.61,1.20,-0.06,0.31,0.99,1.06,976.34
10.804,0.18,1.65,-0.12,-1.55,4.28,0.89,0.31,0.99,1.06,976.34
10.806,0.18,1.65,-0.12,-1.55,4.28,0.89,0.31,0.99,1.06,976.34
10.828,0.11,1.71,0.02,-1.55,4.28,0.89,0.31,0.99,1.06,976.34
10.838,-0.30,1.53,-0.12,-1.55,4.28,0.89,0.31,0.99,1.06,976.34
10.84,-0.30,1.53,-0.12,-1.55,4.28,0.89,0.14,1.03,1.06,976.34
10.84,-0.30,1.53,-0.12,-2.34,7.01,2.93,0.14,1.03,1.06,976.34
10.858,-0.58,1.58,-0.21,-2.34,7.01,2.93,0.14,1.03,1.06,976.34
10.862,-0.58,1.58,-0.21,-2.34,7.01,2.93,0.14,1.03,1.06,976.35
10.874,-0.68,1.34,-0.38,-2.34,7.01,2.93,0.14,1.03,1.06,976.35
10.875,-0.68,1.34,-0.38,-2.34,7.01,2.93,-0.05,1.24,0.80,976.35
10.876,-0.68,1.34,-0.38,-2.75,6.96,2.74,-0.05,1.24,0.80,976.35
10.908,-0.79,0.99,-0.89,-2.75,6.96,2.74,-0.05,1.24,0.80,976.35
10.916,-0.05,1.55,-0.94,-2.75,6.96,2.74,-0.05,1.24,0.80,976.35
10.918,-0.05,1.55,-0.94,-2.75,6.96,2.74,0.43,1.43,0.65,976.35
10.919,-0.05,1.55,-0.94,-9.70,3.84,-1.38,0.43,1.43,0.65,976.35
10.921,-0.05,1.55,-0.94,-9.70,3.84,-1.38,0.43,1.43,0.65,976.35
10.95,0.92,1.78,-0.67,-9.70,3.84,-1.38,0.43,1.43,0.65,976.35
10.955,0.78,1.43,-0.26,-9.70,3.84,-1.38,0.43,1.43,0.65,976.35
10.957,0.78,1.43,-0.26,-9.70,3.84,-1.38,1.19,-0.14,2.40,976.35
10.958,0.78,1.43,-0.26,1.56,7.01,-2.14,1.19,-0.14,2.40,976.35
10.974,0.42,1.05,-0.28,1.56,7.01,-2.14,1.19,-0.14,2.40,976.35
10.989,0.42,1.05,-0.28,1.56,7.01,-2.14,1.19,-0.14,2.40,976.34
11.014,0.47,0.97,-0.59,1.56,7.01,-2.14,1.19,-0.14,2.40,976.34
11.016,0.47,0.97,-0.59,1.56,7.01,-2.14,1.16,1.01,1.83,976.34
11.016,0.47,0.97,-0.59,0.79,7.38,-1.90,1.16,1.01,1.83,976.34
11.017,0.53,1.05,-0.44,0.79,7.38,-1.90,1.16,1.01,1.83,976.34
11.033,0.32,0.90,-0.37,0.79,7.38,-1.90,1.16,1.01,1.83,976.34
11.034,0.32,0.90,-0.37,0.79,7.38,-1.90,0.76,2.18,1.30,976.34
11.035,0.32,0.90,-0.37,-0.70,2.17,-0.28,0.76,2.18,1.30,976.34
11.042,0.32,0.90,-0.37,-0.70,2.17,-0.28,0.76,2.18,1.30,976.33
11.055,0.00,0.59,-0.37,-0.70,2.17,-0.28,0.76,2.18,1.30,976.33
11.073,0.13,0.49,-0.30,-0.70,2.17,-0.28,0.76,2.18,1.30,976.33
11.076,0.13,0.49,-0.30,-0.70,2.17,-0.28,0.59,1.58,0.77,976.33
11.078,0.13,0.49,-0.30,-4.30,-1.08,0.41,0.59,1.58,0.77,976.33
11.101,0.54,0.58,-0.28,-4.30,-1.08,0.41,0.59,1.58,0.77,976.33
11.103,0.54,0.58,-0.28,-4.30,-1.08,0.41,0.59,1.58,0.77,976.32
11.14,0.64,0.65,-0.28,-4.30,-1.08,0.41,0.59,1.58,0.77,976.32
11.143,0.64,0.65,-0.28,-4.42,-0.82,0.57,0.59,1.58,0.77,976.32
11.144,0.64,0.65,-0.28,-4.42,-0.82,0.57,0.47,-0.14,0.74,976.32
11.146,0.49,0.63,-0.26,-4.42,-0.82,0.57,0.47,-0.14,0.74,976.32
11.153,0.32,0.54,-0.23,-4.42,-0.82,0.57,0.47,-0.14,0.74,976.32
11.155,0.32,0.54,-0.23,-4.42,-0.82,0.57,0.21,-0.76,0.25,976.32
11.157,0.32,0.54,-0.23,-0.37,-1.09,1.53,0.21,-0.76,0.25,976.32
11.165,0.32,0.54,-0.23,-0.37,-1.09,1.53,0.21,-0.76,0.25,976.32
11.172,0.27,0.46,-0.31,-0.37,-1.09,1.53,0.21,-0.76,0.25,976.32
11.192,0.36,0.43,-0.32,-0.37,-1.09,1.53,0.21,-0.76,0.25,976.32
11.195,0.36,0.43,-0.32,-0.37,-1.09,1.53,-0.13,-1.18,-0.35,976.32
11.197,0.36,0.43,-0.32,-2.41,-2.60,1.56,-0.13,-1.18,-0.35,976.32
11.222,0.37,0.36,-0.30,-2.41,-2.60,1.56,-0.13,-1.18,-0.35,976.32
11.223,0.37,0.36,-0.30,-2.41,-2.60,1.56,-0.13,-1.18,-0.35,976.31
11.255,0.25,0.27,-0.32,-2.41,-2.60,1.56,-0.13,-1.18,-0.35,976.31
11.258,0.25,0.27,-0.32,-2.41,-2.60,1.56,-0.47,-1.61,-0.85,976.31
11.259,0.25,0.27,-0.32,-1.84,-2.81,1.72,-0.47,-1.61,-0.85,976.31
11.26,0.21,0.20,-0.38,-1.84,-2.81,1.72,-0.47,-1.61,-0.85,976.31
11.271,0.23,0.15,-0.32,-1.84,-2.81,1.72,-0.47,-1.61,-0.85,976.31
11.274,0.23,0.15,-0.32,-1.84,-2.81,1.72,-0.79,-1.74,-1.58,976.31
11.274,0.23,0.15,-0.32,-1.36,-5.08,1.35,-0.79,-1.74,-1.58,976.31
11.281,0.23,0.15,-0.32,-1.36,-5.08,1.35,-0.79,-1.74,-1.58,976.30
11.289,0.24,0.15,-0.30,-1.36,-5.08,1.35,-0.79,-1.74,-1.58,976.30
11.31,0.29,0.16,-0.38,-1.36,-5.08,1.35,-0.79,-1.74,-1.58,976.30
11.313,0.29,0.16,-0.38,-1.36,-5.08,1.35,-1.23,-2.05,-2.23,976.30
11.314,0.29,0.16,-0.38,-0.51,-6.71,1.22,-1.23,-2.05,-2.23,976.30
11.332,0.49,0.17,-0.36,-0.51,-6.71,1.22,-1.23,-2.05,-2.23,976.30
11.341,0.49,0.17,-0.36,-0.51,-6.71,1.22,-1.23,-2.05,-2.23,976.28
11.349,0.64,0.15,-0.40,-0.51,-6.71,1.22,-1.23,-2.05,-2.23,976.28
11.351,0.64,0.15,-0.40,-0.51,-6.71,1.22,-1.56,-2.08,-2.63,976.28
11.351,0.64,0.15,-0.40,0.72,-7.10,0.88,-1.56,-2.08,-2.63,976.28
11.37,0.74,0.16,-0.59,0.72,-7.10,0.88,-1.56,-2.08,-2.63,976.28
11.39,0.82,0.29,-0.68,0.72,-7.10,0.88,-1.56,-2.08,-2.63,976.28
11.394,0.82,0.29,-0.68,0.72,-7.10,0.88,-1.53,-1.40,-2.56,976.28
11.398,0.82,0.29,-0.68,5.37,-7.29,-0.75,-1.53,-1.40,-2.56,976.28
11.402,0.82,0.29,-0.68,5.37,-7.29,-0.75,-1.53,-1.40,-2.56,976.28
11.424,0.93,0.37,-0.66,5.37,-7.29,-0.75,-1.53,-1.40,-2.56,976.28
11.463,0.97,0.30,-0.60,5.37,-7.29,-0.75,-1.53,-1.40,-2.56,976.28
11.464,0.97,0.30,-0.60,5.37,-7.29,-0.75,-0.97,-0.68,-1.75,976.28
11.465,0.97,0.30,-0.60,8.66,-5.80,-2.93,-0.97,-0.68,-1.75,976.28
11.465,0.96,0.19,-0.62,8.66,-5.80,-2.93,-0.97,-0.68,-1.75,976.28
11.466,0.96,0.19,-0.62,8.66,-5.80,-2.93,-0.97,-0.68,-1.75,976.30
11.468,0.91,0.10,-2.19,8.66,-5.80,-2.93,-0.97,-0.68,-1.75,976.30
11.469,0.91,0.10,-2.19,8.66,-5.80,-2.93,-0.20,-0.17,-0.86,976.30
11.47,0.91,0.10,-2.19,8.84,-5.73,-2.95,-0.20,-0.17,-0.86,976.30
11.487,2.51,4.24,-0.14,8.84,-5.73,-2.95,-0.20,-0.17,-0.86,976.30
11.515,1.09,3.83,1.63,8.84,-5.73,-2.95,-0.20,-0.17,-0.86,976.30
11.519,1.09,3.83,1.63,8.84,-5.73,-2.95,0.65,0.02,1.34,976.30
11.519,1.09,3.83,1.63,13.61,5.95,-5.90,0.65,0.02,1.34,976.30
11.521,1.09,3.83,1.63,13.61,5.95,-5.90,0.65,0.02,1.34,976.31
11.544,-3.02,-1.42,-2.19,13.61,5.95,-5.90,0.65,0.02,1.34,976.31
11.547,-1.85,-1.90,-1.12,13.61,5.95,-5.90,0.65,0.02,1.34,976.31
11.548,-1.85,-1.90,-1.12,13.61,5.95,-5.90,1.01,1.46,-0.62,976.31
11.549,-1.85,-1.90,-1.12,-12.88,-6.92,-1.45,1.01,1.46,-0.62,976.31
11.567,2.29,1.43,0.11,-12.88,-6.92,-1.45,1.01,1.46,-0.62,976.31
11.581,2.29,1.43,0.11,-12.88,-6.92,-1.45,1.01,1.46,-0.62,976.31
11.586,2.92,3.15,-0.49,-12.88,-6.92,-1.45,1.01,1.46,-0.62,976.31
11.587,2.92,3.15,-0.49,-12.88,-6.92,-1.45,-0.03,-2.52,1.85,976.31
11.589,2.92,3.15,-0.49,-12.88,-6.77,-1.38,-0.03,-2.52,1.85,976.31
11.606,0.12,0.88,-0.50,-12.88,-6.77,-1.38,-0.03,-2.52,1.85,976.31
11.637,-0.59,0.00,-0.61,-12.88,-6.77,-1.38,-0.03,-2.52,1.85,976.31
11.64,-0.59,0.00,-0.61,-12.88,-6.77,-1.38,0.15,0.65,0.01,976.31
11.641,-0.59,0.00,-0.61,16.50,9.27,1.29,0.15,0.65,0.01,976.31
11.642,-0.59,0.00,-0.61,16.50,9.27,1.29,0.15,0.65,0.01,976.31
11.648,-0.44,0.62,-0.66,16.50,9.27,1.29,0.15,0.65,0.01,976.31
11.666,0.20,1.30,-0.52,16.50,9.27,1.29,0.15,0.65,0.01,976.31
11.668,0.20,1.30,-0.52,16.50,9.27,1.29,0.03,0.63,-1.04,976.31
11.668,0.20,1.30,-0.52,-3.28,-2.29,-1.68,0.03,0.63,-1.04,976.31
11.686,0.96,1.32,-0.43,-3.28,-2.29,-1.68,0.03,0.63,-1.04,976.31
11.713,0.96,1.32,-0.43,-3.28,-2.29,-1.68,0.03,0.63,-1.04,976.29
11.716,0.30,0.86,-0.41,-3.28,-2.29,-1.68,0.03,0.63,-1.04,976.29
11.718,0.30,0.86,-0.41,-3.28,-2.29,-1.68,-0.43,-0.38,-0.25,976.29
11.719,0.30,0.86,-0.41,-3.08,-2.32,-1.79,-0.43,-0.38,-0.25,976.29
11.725,-0.42,0.69,-0.46,-3.08,-2.32,-1.79,-0.43,-0.38,-0.25,976.29
11.759,-0.27,0.84,-0.42,-3.08,-2.32,-1.79,-0.43,-0.38,-0.25,976.29
11.763,-0.27,0.84,-0.42,-3.08,-2.32,-1.79,-0.40,0.54,-0.96,976.29
11.766,-0.27,0.84,-0.42,2.57,0.68,-0.33,-0.40,0.54,-0.96,976.29
11.767,-0.27,0.84,-0.42,2.57,0.68,-0.33,-0.40,0.54,-0.96,976.29
11.768,0.04,0.99,-0.34,2.57,0.68,-0.33,-0.40,0.54,-0.96,976.29
11.784,0.01,0.98,-0.32,2.57,0.68,-0.33,-0.40,0.54,-0.96,976.29
11.786,0.01,0.98,-0.32,2.57,0.68,-0.33,-0.46,0.28,-0.64,976.29
11.787,0.01,0.98,-0.32,-0.68,0.44,0.22,-0.46,0.28,-0.64,976.29
11.811,-0.14,0.90,-0.33,-0.68,0.44,0.22,-0.46,0.28,-0.64,976.29
11.821,-0.14,0.90,-0.33,-0.68,0.44,0.22,-0.46,0.28,-0.64,976.29
11.824,-0.19,0.87,-0.30,-0.68,0.44,0.22,-0.46,0.28,-0.64,976.29
11.825,-0.19,0.87,-0.30,-0.68,0.44,0.22,-0.40,0.13,-0.43,976.29
11.827,-0.19,0.87,-0.30,-0.54,0.38,0.08,-0.40,0.13,-0.43,976.29
11.845,-0.19,0.91,-0.26,-0.54,0.38,0.08,-0.40,0.13,-0.43,976.29
11.867,-0.19,0.91,-0.26,-1.47,-0.10,0.60,-0.40,0.13,-0.43,976.29
11.874,-0.24,0.94,-0.29,-1.47,-0.10,0.60,-0.40,0.13,-0.43,976.29
11.876,-0.24,0.94,-0.29,-1.47,-0.10,0.60,-0.27,0.21,-0.26,976.29
11.884,-0.24,0.94,-0.29,-1.47,-0.10,0.60,-0.27,0.21,-0.26,976.30
11.888,-0.17,0.91,-0.28,-1.47,-0.10,0.60,-0.27,0.21,-0.26,976.30
11.903,-0.05,0.91,-0.26,-1.47,-0.10,0.60,-0.27,0.21,-0.26,976.30
11.906,-0.05,0.91,-0.26,-1.47,-0.10,0.60,-0.12,-0.12,0.05,976.30
11.908,-0.05,0.91,-0.26,-1.25,0.14,0.75,-0.12,-0.12,0.05,976.30
11.936,0.00,0.98,-0.23,-1.25,0.14,0.75,-0.12,-0.12,0.05,976.30
11.941,0.00,0.98,-0.23,-1.25,0.14,0.75,-0.12,-0.12,0.05,976.31
11.944,-0.04,0.99,-0.25,-1.25,0.14,0.75,-0.12,-0.12,0.05,976.31
11.946,-0.04,0.99,-0.25,-1.25,0.14,0.75,0.03,-0.08,0.28,976.31
11.949,-0.04,0.99,-0.25,-1.32,0.14,0.75,0.03,-0.08,0.28,976.31
11.97,-0.08,0.99,-0.26,-1.32,0.14,0.75,0.03,-0.08,0.28,976.31
11.982,-0.10,1.00,-0.32,-1.32,0.14,0.75,0.03,-0.08,0.28,976.31
11.984,-0.10,1.00,-0.32,-1.32,0.14,0.75,0.21,0.32,0.38,976.31
11.985,-0.10,1.00,-0.32,-0.35,0.82,1.12,0.21,0.32,0.38,976.31
12.006,-0.10,1.00,-0.32,-0.35,0.82,1.12,0.21,0.32,0.38,976.31
12.007,-0.06,0.94,-0.41,-0.35,0.82,1.12,0.21,0.32,0.38,976.31
12.03,0.01,0.98,-0.39,-0.35,0.82,1.12,0.21,0.32,0.38,976.31
12.031,0.01,0.98,-0.39,-0.35,0.82,1.12,0.28,0.39,0.54,976.31
12.032,0.01,0.98,-0.39,-0.70,0.70,-0.08,0.28,0.39,0.54,976.31
12.04,-0.02,1.06,-0.46,-0.70,0.70,-0.08,0.28,0.39,0.54,976.31
12.062,-0.02,1.06,-0.46,-0.70,0.70,-0.08,0.28,0.39,0.54,976.32
12.066,0.04,1.07,-0.57,-0.70,0.70,-0.08,0.28,0.39,0.54,976.32
12.068,0.04,1.07,-0.57,-0.70,0.70,-0.08,0.20,0.37,0.63,976.32
12.071,0.04,1.07,-0.57,-0.95,0.73,-0.02,0.20,0.37,0.63,976.32
12.083,0.27,1.15,-0.49,-0.95,0.73,-0.02,0.20,0.37,0.63,976.32
12.103,0.37,1.36,-0.37,-0.95,0.73,-0.02,0.20,0.37,0.63,976.32
12.105,0.37,1.36,-0.37,-0.95,0.73,-0.02,-0.10,0.25,0.62,976.32
12.107,0.37,1.36,-0.37,0.21,1.88,-1.32,-0.10,0.25,0.62,976.32
12.128,0.37,1.36,-0.37,0.21,1.88,-1.32,-0.10,0.25,0.62,976.31
12.13,0.35,1.48,-0.28,0.21,1.88,-1.32,-0.10,0.25,0.62,976.31
12.14,0.23,1.56,-0.20,0.21,1.88,-1.32,-0.10,0.25,0.62,976.31
12.142,0.23,1.56,-0.20,0.21,1.88,-1.32,-0.40,0.66,0.23,976.31
12.143,0.23,1.56,-0.20,2.14,5.41,0.69,-0.40,0.66,0.23,976.31
12.172,0.07,1.59,-0.28,2.14,5.41,0.69,-0.40,0.66,0.23,976.31
12.184,0.07,1.59,-0.28,2.08,5.22,0.39,-0.40,0.66,0.23,976.31
12.187,-0.45,1.58,0.03,2.08,5.22,0.39,-0.40,0.66,0.23,976.31
12.189,-0.45,1.58,0.03,2.08,5.22,0.39,-0.72,0.93,-0.27,976.31
12.191,-0.45,1.58,0.03,2.08,5.22,0.39,-0.72,0.93,-0.27,976.30
12.199,-1.17,1.11,0.04,2.08,5.22,0.39,-0.72,0.93,-0.27,976.30
12.235,-1.45,0.54,-0.42,2.08,5.22,0.39,-0.72,0.93,-0.27,976.30
12.239,-1.45,0.54,-0.42,2.08,5.22,0.39,-0.66,1.03,-0.23,976.30
12.24,-1.45,0.54,-0.42,-6.01,4.63,2.17,-0.66,1.03,-0.23,976.30
12.241,-0.67,1.08,-1.06,-6.01,4.63,2.17,-0.66,1.03,-0.23,976.30
12.241,-0.67,1.08,-1.06,-6.01,4.63,2.17,-0.66,1.03,-0.23,976.29
12.27,-0.67,1.08,-1.06,-4.52,2.73,-3.53,-0.66,1.03,-0.23,976.29
12.272,1.24,2.02,-0.61,-4.52,2.73,-3.53,-0.66,1.03,-0.23,976.29
12.273,1.24,2.02,-0.61,-4.52,2.73,-3.53,0.95,-0.49,2.34,976.29
12.278,1.03,1.96,-0.49,-4.52,2.73,-3.53,0.95,-0.49,2.34,976.29
12.311,0.53,1.63,-0.72,-4.52,2.73,-3.53,0.95,-0.49,2.34,976.29
12.314,0.53,1.63,-0.72,-5.75,3.38,-2.64,0.95,-0.49,2.34,976.29
12.315,0.53,1.63,-0.72,-5.75,3.38,-2.64,2.19,-0.85,4.19,976.29
12.319,0.53,1.63,-0.72,-5.75,3.38,-2.64,2.19,-0.85,4.19,976.29
12.32,0.75,1.68,-0.45,-5.75,3.38,-2.64,2.19,-0.85,4.19,976.29
12.336,0.25,1.46,-0.52,-5.75,3.38,-2.64,2.19,-0.85,4.19,976.29
12.338,0.25,1.46,-0.52,-5.75,3.38,-2.64,2.02,1.23,3.40,976.29
12.339,0.25,1.46,-0.52,3.29,9.39,-0.76,2.02,1.23,3.40,976.29
12.359,0.07,1.22,-0.36,3.29,9.39,-0.76,2.02,1.23,3.40,976.29
12.362,0.07,1.22,-0.36,3.29,9.39,-0.76,2.02,1.23,3.40,976.28
12.382,0.15,0.98,-0.33,3.29,9.39,-0.76,2.02,1.23,3.40,976.28
12.385,0.15,0.98,-0.33,3.29,9.39,-0.76,1.18,1.61,2.83,976.28
12.387,0.15,0.98,-0.33,-3.78,4.78,0.72,1.18,1.61,2.83,976.28
12.401,0.26,0.66,-0.23,-3.78,4.78,0.72,1.18,1.61,2.83,976.28
12.436,0.36,0.48,-0.19,-3.78,4.78,0.72,1.18,1.61,2.83,976.28
12.439,0.36,0.48,-0.19,-3.78,4.78,0.72,0.63,0.64,2.34,976.28
12.44,0.36,0.48,-0.19,-4.46,5.33,0.74,0.63,0.64,2.34,976.28
12.44,0.36,0.48,-0.19,-4.46,5.33,0.74,0.63,0.64,2.34,976.27
12.441,0.28,0.51,-0.11,-4.46,5.33,0.74,0.63,0.64,2.34,976.27
12.473,0.10,0.51,-0.06,-4.46,5.33,0.74,0.63,0.64,2.34,976.27
12.476,0.10,0.51,-0.06,-4.46,5.33,0.74,0.16,0.30,1.21,976.27
12.477,0.10,0.51,-0.06,-3.37,-0.85,2.87,0.16,0.30,1.21,976.27
12.481,-0.05,0.35,-0.09,-3.37,-0.85,2.87,0.16,0.30,1.21,976.27
12.483,-0.05,0.35,-0.09,-3.37,-0.85,2.87,0.16,0.30,1.21,976.27
12.495,-0.07,0.17,-0.15,-3.37,-0.85,2.87,0.16,0.30,1.21,976.27
12.497,-0.07,0.17,-0.15,-3.37,-0.85,2.87,-0.27,-0.04,-0.08,976.27
12.499,-0.07,0.17,-0.15,-6.24,-2.90,3.49,-0.27,-0.04,-0.08,976.27
12.517,0.05,0.08,-0.14,-6.24,-2.90,3.49,-0.27,-0.04,-0.08,976.27
12.536,0.06,0.06,-0.09,-6.24,-2.90,3.49,-0.27,-0.04,-0.08,976.27
12.537,0.06,0.06,-0.09,-6.24,-2.90,3.49,-0.68,-1.10,-1.11,976.27
12.539,0.06,0.06,-0.09,-5.67,-3.22,3.51,-0.68,-1.10,-1.11,976.27
12.54,0.06,0.06,-0.09,-5.67,-3.22,3.51,-0.68,-1.10,-1.11,976.26
12.553,0.10,0.06,-0.21,-5.67,-3.22,3.51,-0.68,-1.10,-1.11,976.26
12.574,0.20,0.04,-0.27,-5.67,-3.22,3.51,-0.68,-1.10,-1.11,976.26
12.575,0.20,0.04,-0.27,-5.67,-3.22,3.51,-0.98,-1.52,-2.09,976.26
12.576,0.20,0.04,-0.27,-4.01,-6.45,3.07,-0.98,-1.52,-2.09,976.26
12.595,0.27,0.04,-0.28,-4.01,-6.45,3.07,-0.98,-1.52,-2.09,976.26
12.62,0.27,0.04,-0.28,-4.01,-6.45,3.07,-0.98,-1.52,-2.09,976.25
12.624,0.34,0.02,-0.35,-4.01,-6.45,3.07,-0.98,-1.52,-2.09,976.25
12.626,0.34,0.02,-0.35,-4.01,-6.45,3.07,-1.20,-1.62,-2.85,976.25
12.629,0.34,0.02,-0.35,-0.93,-7.30,1.46,-1.20,-1.62,-2.85,976.25
12.656,0.49,-0.07,-0.50,-0.93,-7.30,1.46,-1.20,-1.62,-2.85,976.25
12.66,0.70,-0.15,-0.49,-0.93,-7.30,1.46,-1.20,-1.62,-2.85,976.25
12.661,0.70,-0.15,-0.49,-0.93,-7.30,1.46,-1.29,-1.13,-3.22,976.25
12.661,0.70,-0.15,-0.49,0.27,-7.77,1.16,-1.29,-1.13,-3.22,976.25
12.662,0.70,-0.15,-0.49,0.27,-7.77,1.16,-1.29,-1.13,-3.22,976.24
12.673,0.81,-0.07,-0.54,0.27,-7.77,1.16,-1.29,-1.13,-3.22,976.24
12.693,0.81,-0.07,-0.54,5.12,-9.28,-1.20,-1.29,-1.13,-3.22,976.24
12.694,0.79,0.15,-0.65,5.12,-9.28,-1.20,-1.29,-1.13,-3.22,976.24
12.695,0.79,0.15,-0.65,5.12,-9.28,-1.20,-1.08,0.03,-3.04,976.24
12.714,0.85,0.27,-0.56,5.12,-9.28,-1.20,-1.08,0.03,-3.04,976.24
12.719,0.85,0.27,-0.56,5.12,-9.28,-1.20,-1.08,0.03,-3.04,976.24
12.733,1.20,0.06,-0.77,5.12,-9.28,-1.20,-1.08,0.03,-3.04,976.24
12.735,1.20,0.06,-0.77,5.12,-9.28,-1.20,-0.57,0.11,-2.09,976.24
12.736,1.20,0.06,-0.77,8.35,-6.85,-2.85,-0.57,0.11,-2.09,976.24
12.751,1.89,0.70,-2.42,8.35,-6.85,-2.85,-0.57,0.11,-2.09,976.24
12.772,3.16,5.97,1.04,8.35,-6.85,-2.85,-0.57,0.11,-2.09,976.24
12.775,3.16,5.97,1.04,8.35,-6.85,-2.85,0.25,-0.76,0.03,976.24
12.778,3.16,5.97,1.04,8.31,-6.70,-2.70,0.25,-0.76,0.03,976.24
12.785,3.16,5.97,1.04,8.31,-6.70,-2.70,0.25,-0.76,0.03,976.24
12.794,-2.15,2.38,-0.33,8.31,-6.70,-2.70,0.25,-0.76,0.03,976.24
12.811,-2.95,-2.17,-1.91,8.31,-6.70,-2.70,0.25,-0.76,0.03,976.24
12.814,-2.95,-2.17,-1.91,8.31,-6.70,-2.70,0.98,1.86,-0.64,976.24
12.816,-2.95,-2.17,-1.91,8.31,21.08,-1.53,0.98,1.86,-0.64,976.24
12.833,1.36,-1.71,-0.05,8.31,21.08,-1.53,0.98,1.86,-0.64,976.24
12.839,1.36,-1.71,-0.05,8.31,21.08,-1.53,0.98,1.86,-0.64,976.24
12.867,2.30,2.13,-0.38,8.31,21.08,-1.53,0.98,1.86,-0.64,976.24
12.87,2.30,2.13,-0.38,8.31,21.08,-1.53,0.28,-1.88,1.36,976.24
12.871,2.30,2.13,-0.38,1.01,-13.82,-3.34,0.28,-1.88,1.36,976.24
12.873,0.79,3.15,-0.51,1.01,-13.82,-3.34,0.28,-1.88,1.36,976.24
12.89,-0.07,0.47,-0.56,1.01,-13.82,-3.34,0.28,-1.88,1.36,976.24
12.892,-0.07,0.47,-0.56,1.01,-13.82,-3.34,-0.06,-0.73,0.56,976.24
12.893,-0.07,0.47,-0.56,0.94,-13.57,-3.26,-0.06,-0.73,0.56,976.24
12.917,-0.07,0.47,-0.56,0.94,-13.57,-3.26,-0.06,-0.73,0.56,976.25
12.92,-0.08,-0.08,-0.66,0.94,-13.57,-3.26,-0.06,-0.73,0.56,976.25
12.93,0.10,0.91,-0.59,0.94,-13.57,-3.26,-0.06,-0.73,0.56,976.25
12.932,0.10,0.91,-0.59,0.94,-13.57,-3.26,0.12,0.67,-0.86,976.25
12.933,0.10,0.91,-0.59,0.84,3.62,-1.24,0.12,0.67,-0.86,976.25
12.949,0.29,1.47,-0.48,0.84,3.62,-1.24,0.12,0.67,-0.86,976.25
12.959,0.29,1.47,-0.48,0.84,3.62,-1.24,0.12,0.67,-0.86,976.24
12.97,0.50,1.14,-0.43,0.84,3.62,-1.24,0.12,0.67,-0.86,976.24
12.974,0.50,1.14,-0.43,0.84,3.62,-1.24,-0.40,-0.29,-0.41,976.24
12.977,0.50,1.14,-0.43,1.77,3.38,-0.61,-0.40,-0.29,-0.41,976.24
12.99,0.29,0.70,-0.43,1.77,3.38,-0.61,-0.40,-0.29,-0.41,976.24
13.021,-0.03,0.74,-0.45,1.77,3.38,-0.61,-0.40,-0.29,-0.41,976.24
13.022,-0.03,0.74,-0.45,1.77,3.38,-0.61,-0.46,0.01,-0.67,976.24
13.023,-0.03,0.74,-0.45,1.95,3.22,-0.74,-0.46,0.01,-0.67,976.24
13.024,-0.03,0.74,-0.45,1.95,3.22,-0.74,-0.46,0.01,-0.67,976.24
13.029,-0.08,0.98,-0.44,1.95,3.22,-0.74,-0.46,0.01,-0.67,976.24
13.051,0.06,1.01,-0.35,1.95,3.22,-0.74,-0.46,0.01,-0.67,976.24
13.052,0.06,1.01,-0.35,1.95,3.22,-0.74,-0.50,0.23,-0.88,976.24
13.053,0.06,1.01,-0.35,-0.08,-0.48,-0.32,-0.50,0.23,-0.88,976.24
13.071,0.08,0.88,-0.34,-0.08,-0.48,-0.32,-0.50,0.23,-0.88,976.24
13.079,0.08,0.88,-0.34,-0.08,-0.48,-0.32,-0.50,0.23,-0.88,976.24
13.088,-0.06,0.85,-0.36,-0.08,-0.48,-0.32,-0.50,0.23,-0.88,976.24
13.091,-0.06,0.85,-0.36,-0.08,-0.48,-0.32,-0.52,-0.03,-0.65,976.24
13.092,-0.06,0.85,-0.36,-0.18,0.47,0.38,-0.52,-0.03,-0.65,976.24
13.119,-0.10,0.90,-0.31,-0.18,0.47,0.38,-0.52,-0.03,-0.65,976.24
13.127,-0.09,0.91,-0.26,-0.18,0.47,0.38,-0.52,-0.03,-0.65,976.24
13.128,-0.09,0.91,-0.26,-0.18,0.47,0.38,-0.46,0.02,-0.54,976.24
13.129,-0.09,0.91,-0.26,-0.01,0.38,0.22,-0.46,0.02,-0.54,976.24
13.157,-0.09,0.91,-0.26,-0.01,0.38,0.22,-0.46,0.02,-0.54,976.26
13.159,-0.09,0.95,-0.22,-0.01,0.38,0.22,-0.46,0.02,-0.54,976.26
13.168,-0.13,0.95,-0.25,-0.01,0.38,0.22,-0.46,0.02,-0.54,976.26
13.172,-0.13,0.95,-0.25,-0.01,0.38,0.22,-0.33,-0.07,-0.31,976.26
13.173,-0.13,0.95,-0.25,-1.08,0.41,0.95,-0.33,-0.07,-0.31,976.26
13.186,-0.07,0.90,-0.26,-1.08,0.41,0.95,-0.33,-0.07,-0.31,976.26
13.214,-0.07,0.90,-0.26,-1.08,0.41,0.95,-0.33,-0.07,-0.31,976.27
13.216,0.01,0.93,-0.19,-1.08,0.41,0.95,-0.33,-0.07,-0.31,976.27
13.218,0.01,0.93,-0.19,-1.08,0.41,0.95,-0.11,-0.08,-0.07,976.27
13.219,0.01,0.93,-0.19,-0.71,0.42,1.21,-0.11,-0.08,-0.07,976.27
13.226,-0.18,0.97,-0.19,-0.71,0.42,1.21,-0.11,-0.08,-0.07,976.27
13.264,-0.38,0.96,-0.32,-0.71,0.42,1.21,-0.11,-0.08,-0.07,976.27
13.265,-0.38,0.96,-0.32,-0.71,0.42,1.21,0.12,0.20,0.12,976.27
13.266,-0.38,0.96,-0.32,-0.77,0.43,1.23,0.12,0.20,0.12,976.27
13.267,-0.38,0.96,-0.32,-0.77,0.43,1.23,0.12,0.20,0.12,976.28
13.268,-0.22,0.95,-0.40,-0.77,0.43,1.23,0.12,0.20,0.12,976.28
13.285,0.08,0.99,-0.32,-0.77,0.43,1.23,0.12,0.20,0.12,976.28
13.286,0.08,0.99,-0.32,-0.77,0.43,1.23,0.28,0.09,0.50,976.28
13.287,0.08,0.99,-0.32,-2.84,0.81,0.61,0.28,0.09,0.50,976.28
13.305,0.09,1.03,-0.45,-2.84,0.81,0.61,0.28,0.09,0.50,976.28
13.336,0.09,1.03,-0.45,-2.84,0.81,0.61,0.28,0.09,0.50,976.28
13.339,0.16,1.11,-0.46,-2.84,0.81,0.61,0.28,0.09,0.50,976.28
13.34,0.16,1.11,-0.46,-2.84,0.81,0.61,0.24,0.10,0.72,976.28
13.341,0.16,1.11,-0.46,0.50,1.64,-0.37,0.24,0.10,0.72,976.28
13.372,0.26,1.18,-0.51,0.50,1.64,-0.37,0.24,0.10,0.72,976.28
13.375,0.30,1.25,-0.51,0.50,1.64,-0.37,0.24,0.10,0.72,976.28
13.378,0.30,1.25,-0.51,0.50,1.64,-0.37,0.03,0.23,0.54,976.28
13.379,0.30,1.25,-0.51,0.28,1.63,-0.36,0.03,0.23,0.54,976.28
13.38,0.30,1.25,-0.51,0.28,1.63,-0.36,0.03,0.23,0.54,976.27
13.389,0.50,1.45,-0.34,0.28,1.63,-0.36,0.03,0.23,0.54,976.27
13.408,0.40,1.59,-0.29,0.28,1.63,-0.36,0.03,0.23,0.54,976.27
13.415,0.40,1.59,-0.29,0.28,1.63,-0.36,-0.37,0.48,0.13,976.27
13.417,0.40,1.59,-0.29,2.52,3.98,-0.90,-0.37,0.48,0.13,976.27
13.423,-0.04,1.60,-0.23,2.52,3.98,-0.90,-0.37,0.48,0.13,976.27
13.439,-0.04,1.60,-0.23,2.52,3.98,-0.90,-0.37,0.48,0.13,976.26
13.443,-0.21,1.54,-0.13,2.52,3.98,-0.90,-0.37,0.48,0.13,976.26
13.443,-0.21,1.54,-0.13,2.52,3.98,-0.90,-0.80,0.58,-0.51,976.26
13.443,-0.21,1.54,-0.13,-0.29,6.51,1.07,-0.80,0.58,-0.51,976.26
13.463,-0.34,1.43,0.05,-0.29,6.51,1.07,-0.80,0.58,-0.51,976.26
13.486,-0.83,0.95,0.04,-0.29,6.51,1.07,-0.80,0.58,-0.51,976.26
13.49,-0.83,0.95,0.04,-0.13,6.27,0.69,-0.80,0.58,-0.51,976.26
13.492,-0.83,0.95,0.04,-0.13,6.27,0.69,-0.95,1.16,-0.83,976.26
13.499,-0.83,0.95,0.04,-0.13,6.27,0.69,-0.95,1.16,-0.83,976.26
13.503,-1.22,0.66,-0.32,-0.13,6.27,0.69,-0.95,1.16,-0.83,976.26
13.523,-0.83,1.08,-0.66,-0.13,6.27,0.69,-0.95,1.16,-0.83,976.26
13.524,-0.83,1.08,-0.66,-0.13,6.27,0.69,-0.44,1.09,-0.36,976.26
13.525,-0.83,1.08,-0.66,-8.32,0.68,1.88,-0.44,1.09,-0.36,976.26
13.543,0.12,1.27,-0.48,-8.32,0.68,1.88,-0.44,1.09,-0.36,976.26
13.575,0.12,1.27,-0.48,-8.32,0.68,1.88,-0.44,1.09,-0.36,976.25
13.577,0.75,1.37,-0.31,-8.32,0.68,1.88,-0.44,1.09,-0.36,976.25
13.578,0.75,1.37,-0.31,-8.32,0.68,1.88,0.73,-1.64,2.45,976.25
13.579,0.75,1.37,-0.31,-1.06,3.03,-1.76,0.73,-1.64,2.45,976.25
13.583,0.66,1.56,-0.28,-1.06,3.03,-1.76,0.73,-1.64,2.45,976.25
13.602,0.33,1.58,-0.47,-1.06,3.03,-1.76,0.73,-1.64,2.45,976.25
13.604,0.33,1.58,-0.47,-1.06,3.03,-1.76,1.36,-0.71,3.06,976.25
13.606,0.33,1.58,-0.47,-2.01,3.35,-1.21,1.36,-0.71,3.06,976.25
13.637,0.33,1.58,-0.47,-2.01,3.35,-1.21,1.36,-0.71,3.06,976.25
13.643,0.17,1.48,-0.43,-2.01,3.35,-1.21,1.36,-0.71,3.06,976.25
13.644,0.07,1.31,-0.36,-2.01,3.35,-1.21,1.36,-0.71,3.06,976.25
13.645,0.07,1.31,-0.36,-2.01,3.35,-1.21,1.46,1.74,2.67,976.25
13.646,0.07,1.31,-0.36,0.46,6.66,-0.01,1.46,1.74,2.67,976.25
13.675,0.12,1.09,-0.36,0.46,6.66,-0.01,1.46,1.74,2.67,976.25
13.677,0.12,1.09,-0.36,0.46,6.66,-0.01,1.46,1.74,2.67,976.24
13.679,0.24,0.89,-0.32,0.46,6.66,-0.01,1.46,1.74,2.67,976.24
13.68,0.24,0.89,-0.32,0.46,6.66,-0.01,1.10,2.07,2.59,976.24
13.683,0.24,0.89,-0.32,-3.01,2.82,0.46,1.10,2.07,2.59,976.24
13.699,0.25,0.74,-0.31,-3.01,2.82,0.46,1.10,2.07,2.59,976.24
13.723,0.18,0.68,-0.36,-3.01,2.82,0.46,1.10,2.07,2.59,976.24
13.725,0.18,0.68,-0.36,-3.01,2.82,0.46,0.82,1.50,2.20,976.24
13.726,0.18,0.68,-0.36,-3.84,3.31,0.41,0.82,1.50,2.20,976.24
13.784,0.18,0.68,-0.36,-3.84,3.31,0.41,0.82,1.50,2.20,976.24
13.785,0.17,0.71,-0.31,-3.84,3.31,0.41,0.82,1.50,2.20,976.24
13.786,0.23,0.71,-0.33,-3.84,3.31,0.41,0.82,1.50,2.20,976.24
13.787,0.23,0.71,-0.33,-3.84,3.31,0.41,0.61,0.49,1.52,976.24
13.788,0.23,0.71,-0.33,-3.75,-0.05,0.68,0.61,0.49,1.52,976.24
13.788,0.37,0.59,-0.29,-3.75,-0.05,0.68,0.61,0.49,1.52,976.24
13.797,0.37,0.59,-0.29,-3.75,-0.05,0.68,0.61,0.49,1.52,976.24
13.801,0.33,0.45,-0.22,-3.75,-0.05,0.68,0.61,0.49,1.52,976.24
13.803,0.33,0.45,-0.22,-3.75,-0.05,0.68,0.32,-0.44,0.80,976.24
13.804,0.33,0.45,-0.22,-2.76,-1.05,1.30,0.32,-0.44,0.80,976.24
13.82,0.14,0.33,-0.24,-2.76,-1.05,1.30,0.32,-0.44,0.80,976.24
13.855,0.04,0.20,-0.24,-2.76,-1.05,1.30,0.32,-0.44,0.80,976.24
13.859,0.04,0.20,-0.24,-2.76,-1.05,1.30,0.04,-0.91,-0.27,976.24
13.859,0.04,0.20,-0.24,-2.49,-1.08,1.49,0.04,-0.91,-0.27,976.24
13.86,0.04,0.20,-0.24,-2.49,-1.08,1.49,0.04,-0.91,-0.27,976.23
13.86,-0.03,0.11,-0.20,-2.49,-1.08,1.49,0.04,-0.91,-0.27,976.23
13.889,-0.01,0.10,-0.28,-2.49,-1.08,1.49,0.04,-0.91,-0.27,976.23
13.891,-0.01,0.10,-0.28,-2.49,-1.08,1.49,-0.29,-1.45,-1.30,976.23
13.892,-0.01,0.10,-0.28,-4.32,-4.93,2.18,-0.29,-1.45,-1.30,976.23
13.897,0.11,0.08,-0.24,-4.32,-4.93,2.18,-0.29,-1.45,-1.30,976.23
13.928,0.11,0.08,-0.24,-4.32,-4.93,2.18,-0.29,-1.45,-1.30,976.22
13.931,0.29,0.02,-0.20,-4.32,-4.93,2.18,-0.29,-1.45,-1.30,976.22
13.933,0.29,0.02,-0.20,-4.32,-4.93,2.18,-0.71,-2.20,-2.11,976.22
13.934,0.29,0.02,-0.20,-2.55,-6.74,2.17,-0.71,-2.20,-2.11,976.22
13.965,0.44,0.02,-0.24,-2.55,-6.74,2.17,-0.71,-2.20,-2.11,976.22
13.966,0.47,0.02,-0.30,-2.55,-6.74,2.17,-0.71,-2.20,-2.11,976.22
13.967,0.47,0.02,-0.30,-2.55,-6.74,2.17,-1.13,-1.81,-2.88,976.22
13.967,0.47,0.02,-0.30,-1.33,-7.19,2.03,-1.13,-1.81,-2.88,976.22
13.976,0.55,0.05,-0.41,-1.33,-7.19,2.03,-1.13,-1.81,-2.88,976.22
13.977,0.55,0.05,-0.41,-1.33,-7.19,2.03,-1.13,-1.81,-2.88,976.20
13.997,0.65,0.17,-0.53,-1.33,-7.19,2.03,-1.13,-1.81,-2.88,976.20
14.0,0.65,0.17,-0.53,-1.33,-7.19,2.03,-1.28,-0.52,-3.23,976.20
14.002,0.65,0.17,-0.53,3.24,-7.87,0.89,-1.28,-0.52,-3.23,976.20
14.023,0.80,0.35,-0.55,3.24,-7.87,0.89,-1.28,-0.52,-3.23,976.20
14.064,0.93,0.41,-0.47,3.24,-7.87,0.89,-1.28,-0.52,-3.23,976.20
14.066,0.93,0.41,-0.47,3.24,-7.87,0.89,-1.21,-0.31,-2.53,976.20
14.066,0.93,0.41,-0.47,7.02,-5.35,-1.40,-1.21,-0.31,-2.53,976.20
14.067,0.93,0.41,-0.47,7.02,-5.35,-1.40,-1.21,-0.31,-2.53,976.19
14.068,0.82,0.06,-2.19,7.02,-5.35,-1.40,-1.21,-0.31,-2.53,976.19
14.075,3.43,4.92,-0.90,7.02,-5.35,-1.40,-1.21,-0.31,-2.53,976.19
14.075,3.43,4.92,-0.90,7.02,-5.35,-1.40,-0.54,-1.40,-0.60,976.19
14.076,3.43,4.92,-0.90,7.29,-5.35,-1.52,-0.54,-1.40,-0.60,976.19
14.095,1.06,2.59,2.18,7.29,-5.35,-1.52,-0.54,-1.40,-0.60,976.19
14.097,1.06,2.59,2.18,7.29,-5.35,-1.52,-0.54,-1.40,-0.60,976.19
14.121,-2.83,-2.03,-2.31,7.29,-5.35,-1.52,-0.54,-1.40,-0.60,976.19
14.122,-2.83,-2.03,-2.31,7.29,-5.35,-1.52,0.42,0.99,0.86,976.19
14.123,-2.83,-2.03,-2.31,16.15,16.17,0.65,0.42,0.99,0.86,976.19
14.161,-1.65,-1.01,-0.89,16.15,16.17,0.65,0.42,0.99,0.86,976.19
14.165,1.70,1.51,-0.01,16.15,16.17,0.65,0.42,0.99,0.86,976.19
14.166,1.70,1.51,-0.01,16.15,16.17,0.65,0.73,-0.52,-0.19,976.19
14.168,1.70,1.51,-0.01,-9.92,-13.21,-6.49,0.73,-0.52,-0.19,976.19
14.169,1.70,1.51,-0.01,-9.92,-13.21,-6.49,0.73,-0.52,-0.19,976.19
14.175,2.50,2.90,-0.47,-9.92,-13.21,-6.49,0.73,-0.52,-0.19,976.19
14.194,0.26,0.78,-0.41,-9.92,-13.21,-6.49,0.73,-0.52,-0.19,976.19
14.196,0.26,0.78,-0.41,-9.92,-13.21,-6.49,0.02,-1.86,1.49,976.19
14.197,0.26,0.78,-0.41,-9.94,-12.93,-6.30,0.02,-1.86,1.49,976.19
14.216,-0.53,0.07,-0.54,-9.94,-12.93,-6.30,0.02,-1.86,1.49,976.19
14.222,-0.53,0.07,-0.54,-9.94,-12.93,-6.30,0.02,-1.86,1.49,976.20
14.26,-0.29,0.74,-0.62,-9.94,-12.93,-6.30,0.02,-1.86,1.49,976.20
14.264,-0.29,0.74,-0.62,-9.94,-12.93,-6.30,0.27,0.81,-0.64,976.20
14.266,-0.29,0.74,-0.62,6.35,4.25,-0.38,0.27,0.81,-0.64,976.20
14.268,0.54,1.33,-0.49,6.35,4.25,-0.38,0.27,0.81,-0.64,976.20
14.275,0.99,1.26,-0.41,6.35,4.25,-0.38,0.27,0.81,-0.64,976.20
14.278,0.99,1.26,-0.41,6.35,4.25,-0.38,-0.12,-0.44,-0.28,976.20
14.28,0.99,1.26,-0.41,3.19,2.79,-0.71,-0.12,-0.44,-0.28,976.20
14.282,0.99,1.26,-0.41,3.19,2.79,-0.71,-0.12,-0.44,-0.28,976.20
14.293,0.11,0.82,-0.49,3.19,2.79,-0.71,-0.12,-0.44,-0.28,976.20
14.317,-0.38,0.71,-0.55,3.19,2.79,-0.71,-0.12,-0.44,-0.28,976.20
14.319,-0.38,0.71,-0.55,3.19,2.79,-0.71,-0.26,0.10,-0.75,976.20
14.32,-0.38,0.71,-0.55,3.36,2.68,-0.78,-0.26,0.10,-0.75,976.20
14.35,-0.09,0.89,-0.46,3.36,2.68,-0.78,-0.26,0.10,-0.75,976.20
14.352,-0.09,0.89,-0.46,3.36,2.68,-0.78,-0.26,0.10,-0.75,976.20
14.353,0.26,1.04,-0.37,3.36,2.68,-0.78,-0.26,0.10,-0.75,976.20
14.354,0.26,1.04,-0.37,3.36,2.68,-0.78,-0.42,0.14,-0.85,976.20
14.355,0.26,1.04,-0.37,-1.56,-0.37,-0.84,-0.42,0.14,-0.85,976.20
14.371,0.11,0.96,-0.33,-1.56,-0.37,-0.84,-0.42,0.14,-0.85,976.20
14.391,-0.18,0.86,-0.33,-1.56,-0.37,-0.84,-0.42,0.14,-0.85,976.20
14.393,-0.18,0.86,-0.33,-1.56,-0.37,-0.84,-0.50,0.00,-0.63,976.20
14.394,-0.18,0.86,-0.33,0.44,0.99,0.51,-0.50,0.00,-0.63,976.20
14.396,-0.18,0.86,-0.33,0.44,0.99,0.51,-0.50,0.00,-0.63,976.20
14.412,-0.23,0.86,-0.32,0.44,0.99,0.51,-0.50,0.00,-0.63,976.20
14.439,-0.09,0.91,-0.28,0.44,0.99,0.51,-0.50,0.00,-0.63,976.20
14.441,-0.09,0.91,-0.28,0.61,0.91,0.37,-0.50,0.00,-0.63,976.20
14.441,-0.09,0.91,-0.28,0.61,0.91,0.37,-0.41,0.12,-0.58,976.20
14.468,-0.03,0.97,-0.22,0.61,0.91,0.37,-0.41,0.12,-0.58,976.20
14.471,-0.03,0.97,-0.22,0.61,0.91,0.37,-0.41,0.12,-0.58,976.21
14.472,-0.16,0.93,-0.22,0.61,0.91,0.37,-0.41,0.12,-0.58,976.21
14.472,-0.16,0.93,-0.22,0.61,0.91,0.37,-0.29,0.07,-0.30,976.21
14.473,-0.16,0.93,-0.22,-1.05,0.44,0.93,-0.29,0.07,-0.30,976.21
14.49,-0.26,0.91,-0.24,-1.05,0.44,0.93,-0.29,0.07,-0.30,976.21
14.511,-0.17,0.93,-0.27,-1.05,0.44,0.93,-0.29,0.07,-0.30,976.21
14.513,-0.17,0.93,-0.27,-1.05,0.44,0.93,-0.07,0.11,-0.07,976.21
14.515,-0.17,0.93,-0.27,-1.76,0.53,1.16,-0.07,0.11,-0.07,976.21
14.537,-0.17,0.93,-0.27,-1.76,0.53,1.16,-0.07,0.11,-0.07,976.20
14.54,-0.03,0.94,-0.24,-1.76,0.53,1.16,-0.07,0.11,-0.07,976.20
14.57,-0.05,0.93,-0.26,-1.76,0.53,1.16,-0.07,0.11,-0.07,976.20
14.572,-0.05,0.93,-0.26,-1.76,0.53,1.16,0.13,0.13,0.25,976.20
14.573,-0.05,0.93,-0.26,-1.83,0.54,1.18,0.13,0.13,0.25,976.20
14.574,-0.11,0.95,-0.31,-1.83,0.54,1.18,0.13,0.13,0.25,976.20
14.576,-0.11,0.95,-0.31,-1.83,0.54,1.18,0.13,0.13,0.25,976.20
14.589,-0.10,1.00,-0.32,-1.83,0.54,1.18,0.13,0.13,0.25,976.20
14.591,-0.10,1.00,-0.32,-1.83,0.54,1.18,0.26,0.20,0.42,976.20
14.592,-0.10,1.00,-0.32,-0.73,0.74,1.03,0.26,0.20,0.42,976.20
14.609,-0.02,0.97,-0.39,-0.73,0.74,1.03,0.26,0.20,0.42,976.20
14.633,0.01,0.95,-0.47,-0.73,0.74,1.03,0.26,0.20,0.42,976.20
14.636,0.01,0.95,-0.47,-0.73,0.74,1.03,0.30,0.11,0.58,976.20
14.638,0.01,0.95,-0.47,-0.66,1.06,-0.09,0.30,0.11,0.58,976.20
14.644,0.01,0.95,-0.47,-0.66,1.06,-0.09,0.30,0.11,0.58,976.20
14.648,-0.00,1.00,-0.58,-0.66,1.06,-0.09,0.30,0.11,0.58,976.20
14.67,-0.00,1.00,-0.58,-0.86,1.07,-0.04,0.30,0.11,0.58,976.20
14.672,0.17,1.11,-0.55,-0.86,1.07,-0.04,0.30,0.11,0.58,976.20
14.673,0.17,1.11,-0.55,-0.86,1.07,-0.04,0.17,0.05,0.62,976.20
14.688,0.32,1.27,-0.49,-0.86,1.07,-0.04,0.17,0.05,0.62,976.20
14.696,0.32,1.27,-0.49,-0.86,1.07,-0.04,0.17,0.05,0.62,976.22
14.708,0.33,1.43,-0.41,-0.86,1.07,-0.04,0.17,0.05,0.62,976.22
14.709,0.33,1.43,-0.41,-0.86,1.07,-0.04,-0.11,0.30,0.44,976.22
14.71,0.33,1.43,-0.41,0.86,2.54,-1.46,-0.11,0.30,0.44,976.22
14.734,0.33,1.59,-0.29,0.86,2.54,-1.46,-0.11,0.30,0.44,976.22
14.749,0.13,1.71,-0.23,0.86,2.54,-1.46,-0.11,0.30,0.44,976.22
14.751,0.13,1.71,-0.23,0.86,2.54,-1.46,-0.41,0.76,-0.02,976.22
14.753,0.13,1.71,-0.23,1.76,6.81,0.62,-0.41,0.76,-0.02,976.22
14.759,0.13,1.71,-0.23,1.76,6.81,0.62,-0.41,0.76,-0.02,976.22
14.768,-0.20,1.73,-0.18,1.76,6.81,0.62,-0.41,0.76,-0.02,976.22
14.787,-0.26,1.66,0.01,1.76,6.81,0.62,-0.41,0.76,-0.02,976.22
14.789,-0.26,1.66,0.01,1.76,6.81,0.62,-0.86,0.82,-0.39,976.22
14.79,-0.26,1.66,0.01,1.75,6.57,0.29,-0.86,0.82,-0.39,976.22
14.806,-0.91,0.92,0.26,1.75,6.57,0.29,-0.86,0.82,-0.39,976.22
14.84,-0.91,0.92,0.26,1.75,6.57,0.29,-0.86,0.82,-0.39,976.21
14.841,-1.40,0.53,-0.77,1.75,6.57,0.29,-0.86,0.82,-0.39,976.21
14.842,-1.40,0.53,-0.77,1.75,6.57,0.29,-0.76,1.69,-0.48,976.21
14.843,-1.40,0.53,-0.77,-5.28,4.96,3.22,-0.76,1.69,-0.48,976.21
14.846,-0.51,1.25,-0.92,-5.28,4.96,3.22,-0.76,1.69,-0.48,976.21
14.873,1.58,1.92,-0.40,-5.28,4.96,3.22,-0.76,1.69,-0.48,976.21
14.875,1.58,1.92,-0.40,-5.28,4.96,3.22,0.84,-0.70,2.08,976.21
14.876,1.58,1.92,-0.40,-2.49,3.14,-3.50,0.84,-0.70,2.08,976.21
14.877,1.58,1.92,-0.40,-2.49,3.14,-3.50,0.84,-0.70,2.08,976.20
14.886,1.17,1.58,-0.43,-2.49,3.14,-3.50,0.84,-0.70,2.08,976.20
14.906,0.39,1.45,-0.50,-2.49,3.14,-3.50,0.84,-0.70,2.08,976.20
14.909,0.39,1.45,-0.50,-2.49,3.14,-3.50,1.78,-0.52,3.70,976.20
14.911,0.39,1.45,-0.50,-3.62,3.63,-2.80,1.78,-0.52,3.70,976.20
14.939,0.24,1.63,-0.40,-3.62,3.63,-2.80,1.78,-0.52,3.70,976.20
14.941,0.24,1.63,-0.40,-3.62,3.63,-2.80,1.78,-0.52,3.70,976.20
14.946,0.24,1.63,-0.40,1.94,7.24,-0.08,1.78,-0.52,3.70,976.20
14.947,-0.16,1.37,-0.43,1.94,7.24,-0.08,1.78,-0.52,3.70,976.20
14.947,-0.16,1.37,-0.43,1.94,7.24,-0.08,1.72,2.64,2.77,976.20
14.968,-0.15,1.03,-0.29,1.94,7.24,-0.08,1.72,2.64,2.77,976.20
14.985,0.19,0.79,-0.27,1.94,7.24,-0.08,1.72,2.64,2.77,976.20
14.987,0.19,0.79,-0.27,1.94,7.24,-0.08,1.24,2.47,2.71,976.20
14.99,0.19,0.79,-0.27,-5.44,3.09,0.94,1.24,2.47,2.71,976.20
14.996,0.19,0.79,-0.27,-5.44,3.09,0.94,1.24,2.47,2.71,976.20
15.004,0.39,0.64,-0.16,-5.44,3.09,0.94,1.24,2.47,2.71,976.20
15.039,0.30,0.62,-0.11,-5.44,3.09,0.94,1.24,2.47,2.71,976.20
15.041,0.30,0.62,-0.11,-5.44,3.09,0.94,1.04,1.37,2.47,976.20
15.041,0.30,0.62,-0.11,-6.24,3.73,0.92,1.04,1.37,2.47,976.20
15.071,0.15,0.69,-0.15,-6.24,3.73,0.92,1.04,1.37,2.47,976.20
15.074,0.15,0.69,-0.15,-6.24,3.73,0.92,1.04,1.37,2.47,976.18
15.075,0.08,0.67,-0.18,-6.24,3.73,0.92,1.04,1.37,2.47,976.18
15.076,0.08,0.67,-0.18,-6.24,3.73,0.92,0.80,1.10,1.47,976.18
15.077,0.08,0.67,-0.18,-3.60,0.16,2.66,0.80,1.10,1.47,976.18
15.082,-0.00,0.50,-0.18,-3.60,0.16,2.66,0.80,1.10,1.47,976.18
15.11,0.01,0.31,-0.19,-3.60,0.16,2.66,0.80,1.10,1.47,976.18
15.112,0.01,0.31,-0.19,-3.60,0.16,2.66,0.39,-0.11,0.63,976.18
15.112,0.01,0.31,-0.19,-6.08,-1.11,2.28,0.39,-0.11,0.63,976.18
15.116,0.01,0.31,-0.19,-6.08,-1.11,2.28,0.39,-0.11,0.63,976.17
15.133,0.16,0.23,-0.22,-6.08,-1.11,2.28,0.39,-0.11,0.63,976.17
15.142,0.25,0.25,-0.21,-6.08,-1.11,2.28,0.39,-0.11,0.63,976.17
15.143,0.25,0.25,-0.21,-6.08,-1.11,2.28,-0.01,-1.87,-0.19,976.17
15.143,0.25,0.25,-0.21,-5.61,-1.14,2.69,-0.01,-1.87,-0.19,976.17
15.162,0.13,0.27,-0.17,-5.61,-1.14,2.69,-0.01,-1.87,-0.19,976.17
15.176,0.13,0.27,-0.17,-5.61,-1.14,2.69,-0.01,-1.87,-0.19,976.17
15.182,0.08,0.26,-0.27,-5.61,-1.14,2.69,-0.01,-1.87,-0.19,976.17
15.184,0.08,0.26,-0.27,-5.61,-1.14,2.69,-0.48,-2.13,-1.19,976.17
15.186,0.08,0.26,-0.27,-3.40,-3.81,2.85,-0.48,-2.13,-1.19,976.17
15.223,0.23,0.21,-0.29,-3.40,-3.81,2.85,-0.48,-2.13,-1.19,976.17
15.226,0.36,0.18,-0.28,-3.40,-3.81,2.85,-0.48,-2.13,-1.19,976.17
15.228,0.36,0.18,-0.28,-3.40,-3.81,2.85,-1.12,-2.13,-2.15,976.17
15.23,0.36,0.18,-0.28,-1.97,-4.68,2.14,-1.12,-2.13,-2.15,976.17
15.264,0.36,0.18,-0.28,-1.97,-4.68,2.14,-1.12,-2.13,-2.15,976.18
15.265,0.41,0.18,-0.31,-1.97,-4.68,2.14,-1.12,-2.13,-2.15,976.18
15.266,0.46,0.24,-0.44,-1.97,-4.68,2.14,-1.12,-2.13,-2.15,976.18
15.267,0.46,0.24,-0.44,-1.97,-4.68,2.14,-1.72,-1.51,-3.02,976.18
15.267,0.46,0.24,-0.44,-0.81,-5.34,1.84,-1.72,-1.51,-3.02,976.18
15.28,0.51,0.29,-0.40,-0.81,-5.34,1.84,-1.72,-1.51,-3.02,976.18
15.296,0.51,0.29,-0.40,-0.81,-5.34,1.84,-1.72,-1.51,-3.02,976.19
15.3,0.53,0.34,-0.52,-0.81,-5.34,1.84,-1.72,-1.51,-3.02,976.19
15.301,0.53,0.34,-0.52,2.55,-5.67,0.30,-1.72,-1.51,-3.02,976.19
15.302,0.53,0.34,-0.52,2.55,-5.67,0.30,-1.80,-0.14,-3.46,976.19
15.337,0.59,0.42,-0.66,2.55,-5.67,0.30,-1.80,-0.14,-3.46,976.19
15.342,0.84,0.42,-0.67,2.55,-5.67,0.30,-1.80,-0.14,-3.46,976.19
15.343,0.84,0.42,-0.67,2.55,-5.67,0.30,-1.35,0.04,-2.94,976.19
15.343,0.84,0.42,-0.67,5.30,-4.44,-2.41,-1.35,0.04,-2.94,976.19
15.368,0.84,0.42,-0.67,5.30,-4.44,-2.41,-1.35,0.04,-2.94,976.19
15.369,0.97,0.33,-0.63,5.30,-4.44,-2.41,-1.35,0.04,-2.94,976.19
15.38,1.04,0.14,-0.89,5.30,-4.44,-2.41,-1.35,0.04,-2.94,976.19
15.381,1.04,0.14,-0.89,5.30,-4.44,-2.41,-0.85,-1.10,-1.66,976.19
15.382,1.04,0.14,-0.89,5.90,-4.53,-2.62,-0.85,-1.10,-1.66,976.19
15.399,1.02,0.38,-2.50,5.90,-4.53,-2.62,-0.85,-1.10,-1.66,976.19
15.416,1.02,0.38,-2.50,5.90,-4.53,-2.62,-0.85,-1.10,-1.66,976.18
15.421,3.26,5.39,0.62,5.90,-4.53,-2.62,-0.85,-1.10,-1.66,976.18
15.422,3.26,5.39,0.62,5.90,-4.53,-2.62,0.19,-1.79,0.43,976.18
15.423,3.26,5.39,0.62,9.35,-5.50,-9.45,0.19,-1.79,0.43,976.18
15.438,-0.82,1.97,0.73,9.35,-5.50,-9.45,0.19,-1.79,0.43,976.18
15.459,-2.90,-1.77,-2.37,9.35,-5.50,-9.45,0.19,-1.79,0.43,976.18
15.461,-2.90,-1.77,-2.37,9.35,-5.50,-9.45,0.67,2.05,0.37,976.18
15.461,-2.90,-1.77,-2.37,-2.44,9.92,0.53,0.67,2.05,0.37,976.18
15.476,-2.90,-1.77,-2.37,-2.44,9.92,0.53,0.67,2.05,0.37,976.19
15.478,-0.47,-0.92,-0.23,-2.44,9.92,0.53,0.67,2.05,0.37,976.19
15.498,2.63,2.23,-0.22,-2.44,9.92,0.53,0.67,2.05,0.37,976.19
15.502,2.63,2.23,-0.22,-2.44,9.92,0.53,0.21,-1.30,0.33,976.19
15.504,2.63,2.23,-0.22,-2.31,9.80,0.64,0.21,-1.30,0.33,976.19
15.54,1.83,2.54,-0.38,-2.31,9.80,0.64,0.21,-1.30,0.33,976.19
15.542,1.83,2.54,-0.38,-2.31,9.80,0.64,0.21,-1.30,0.33,976.18
15.543,0.04,0.41,-0.46,-2.31,9.80,0.64,0.21,-1.30,0.33,976.18
15.544,0.04,0.41,-0.46,-2.31,9.80,0.64,-0.19,-1.48,1.12,976.18
15.546,0.04,0.41,-0.46,11.90,4.07,1.19,-0.19,-1.48,1.12,976.18
15.574,-0.25,0.23,-0.52,11.90,4.07,1.19,-0.19,-1.48,1.12,976.18
15.577,-0.03,0.96,-0.58,11.90,4.07,1.19,-0.19,-1.48,1.12,976.18
15.578,-0.03,0.96,-0.58,11.90,4.07,1.19,0.04,0.86,-1.17,976.18
15.579,-0.03,0.96,-0.58,-1.63,-3.26,-1.19,0.04,0.86,-1.17,976.18
15.596,-0.03,0.96,-0.58,-1.63,-3.26,-1.19,0.04,0.86,-1.17,976.18
15.6,0.62,1.39,-0.52,-1.63,-3.26,-1.19,0.04,0.86,-1.17,976.18
15.616,0.59,1.14,-0.47,-1.63,-3.26,-1.19,0.04,0.86,-1.17,976.18
15.619,0.59,1.14,-0.47,-1.63,-3.26,-1.19,-0.41,-0.15,-0.87,976.18
15.62,0.59,1.14,-0.47,-1.29,-3.29,-1.30,-0.41,-0.15,-0.87,976.18
15.64,-0.18,0.77,-0.45,-1.29,-3.29,-1.30,-0.41,-0.15,-0.87,976.18
15.68,-0.18,0.77,-0.45,-1.29,-3.29,-1.30,-0.41,-0.15,-0.87,976.17
15.681,-0.48,0.72,-0.42,-1.29,-3.29,-1.30,-0.41,-0.15,-0.87,976.17
15.681,-0.48,0.72,-0.42,-1.29,-3.29,-1.30,-0.62,0.30,-1.24,976.17
15.682,-0.48,0.72,-0.42,3.20,2.12,-1.11,-0.62,0.30,-1.24,976.17
15.683,-0.21,0.88,-0.31,3.20,2.12,-1.11,-0.62,0.30,-1.24,976.17
15.696,0.03,1.00,-0.17,3.20,2.12,-1.11,-0.62,0.30,-1.24,976.17
15.699,0.03,1.00,-0.17,3.20,2.12,-1.11,-0.73,0.18,-0.99,976.17
15.7,0.03,1.00,-0.17,-1.98,-0.29,0.38,-0.73,0.18,-0.99,976.17
15.715,0.03,1.00,-0.17,-1.98,-0.29,0.38,-0.73,0.18,-0.99,976.17
15.718,-0.12,0.93,-0.15,-1.98,-0.29,0.38,-0.73,0.18,-0.99,976.17
15.738,-0.12,0.93,-0.15,-1.74,-0.35,0.18,-0.73,0.18,-0.99,976.17
15.741,-0.35,0.84,-0.15,-1.74,-0.35,0.18,-0.73,0.18,-0.99,976.17
15.742,-0.35,0.84,-0.15,-1.74,-0.35,0.18,-0.58,0.04,-0.61,976.17
15.763,-0.37,0.86,-0.15,-1.74,-0.35,0.18,-0.58,0.04,-0.61,976.17
15.774,-0.23,0.94,-0.15,-1.74,-0.35,0.18,-0.58,0.04,-0.61,976.17
15.776,-0.23,0.94,-0.15,-1.74,-0.35,0.18,-0.28,-0.10,-0.35,976.17
15.777,-0.23,0.94,-0.15,-2.16,-0.26,1.54,-0.28,-0.10,-0.35,976.17
15.777,-0.23,0.94,-0.15,-2.16,-0.26,1.54,-0.28,-0.10,-0.35,976.18
15.793,-0.15,0.97,-0.14,-2.16,-0.26,1.54,-0.28,-0.10,-0.35,976.18
15.814,-0.12,0.95,-0.18,-2.16,-0.26,1.54,-0.28,-0.10,-0.35,976.18
15.815,-0.12,0.95,-0.18,-2.16,-0.26,1.54,-0.01,-0.30,0.10,976.18
15.815,-0.12,0.95,-0.18,-1.07,0.47,1.44,-0.01,-0.30,0.10,976.18
15.839,-0.07,0.95,-0.21,-1.07,0.47,1.44,-0.01,-0.30,0.10,976.18
15.843,-0.07,0.95,-0.21,-1.07,0.47,1.44,-0.01,-0.30,0.10,976.19
15.866,-0.16,0.98,-0.19,-1.07,0.47,1.44,-0.01,-0.30,0.10,976.19
15.867,-0.16,0.98,-0.19,-1.07,0.47,1.44,0.22,-0.05,0.37,976.19
15.868,-0.16,0.98,-0.19,-1.17,0.48,1.49,0.22,-0.05,0.37,976.19
15.873,-0.34,0.93,-0.34,-1.17,0.48,1.49,0.22,-0.05,0.37,976.19
15.892,-0.09,0.92,-0.35,-1.17,0.48,1.49,0.22,-0.05,0.37,976.19
15.894,-0.09,0.92,-0.35,-1.17,0.48,1.49,0.38,0.19,0.58,976.19
15.894,-0.09,0.92,-0.35,-1.61,0.53,0.76,0.38,0.19,0.58,976.19
15.895,-0.09,0.92,-0.35,-1.61,0.53,0.76,0.38,0.19,0.58,976.19
15.912,0.21,1.06,-0.29,-1.61,0.53,0.76,0.38,0.19,0.58,976.19
15.94,0.06,1.08,-0.44,-1.61,0.53,0.76,0.38,0.19,0.58,976.19
15.941,0.06,1.08,-0.44,-1.61,0.53,0.76,0.34,-0.02,0.81,976.19
15.942,0.06,1.08,-0.44,0.57,1.18,-0.24,0.34,-0.02,0.81,976.19
15.953,0.07,1.03,-0.48,0.57,1.18,-0.24,0.34,-0.02,0.81,976.19
15.972,0.07,1.03,-0.48,0.57,1.18,-0.24,0.34,-0.02,0.81,976.19
15.974,0.32,1.08,-0.38,0.57,1.18,-0.24,0.34,-0.02,0.81,976.19
15.975,0.32,1.08,-0.38,0.57,1.18,-0.24,0.19,0.13,0.65,976.19
15.976,0.32,1.08,-0.38,0.33,1.19,-0.18,0.19,0.13,0.65,976.19
15.992,0.20,1.14,-0.42,0.33,1.19,-0.18,0.19,0.13,0.65,976.19
16.013,0.02,1.21,-0.45,0.33,1.19,-0.18,0.19,0.13,0.65,976.19
16.016,0.02,1.21,-0.45,0.33,1.19,-0.18,-0.05,0.35,0.37,976.19
16.017,0.02,1.21,-0.45,1.46,1.78,-0.87,-0.05,0.35,0.37,976.19
16.019,0.02,1.21,-0.45,1.46,1.78,-0.87,-0.05,0.35,0.37,976.19
16.042,0.15,1.32,-0.33,1.46,1.78,-0.87,-0.05,0.35,0.37,976.19
16.051,0.15,1.46,-0.23,1.46,1.78,-0.87,-0.05,0.35,0.37,976.19
16.052,0.15,1.46,-0.23,1.46,1.78,-0.87,-0.24,0.84,0.15,976.19
16.052,0.15,1.46,-0.23,0.42,4.11,-0.08,-0.24,0.84,0.15,976.19
16.076,-0.12,1.65,-0.12,0.42,4.11,-0.08,-0.24,0.84,0.15,976.19
16.079,-0.12,1.65,-0.12,0.42,4.11,-0.08,-0.24,0.84,0.15,976.20
16.09,-0.34,1.69,-0.02,0.42,4.11,-0.08,-0.24,0.84,0.15,976.20
16.093,-0.34,1.69,-0.02,0.42,4.11,-0.08,-0.51,0.87,-0.00,976.20
16.094,-0.34,1.69,-0.02,0.31,3.97,-0.28,-0.51,0.87,-0.00,976.20
16.11,-0.47,1.50,0.04,0.31,3.97,-0.28,-0.51,0.87,-0.00,976.20
16.135,-0.77,1.15,0.09,0.31,3.97,-0.28,-0.51,0.87,-0.00,976.20
16.137,-0.77,1.15,0.09,0.31,3.97,-0.28,-0.73,0.67,0.10,976.20
16.138,-0.77,1.15,0.09,-3.83,6.56,2.36,-0.73,0.67,0.10,976.20
16.139,-0.77,1.15,0.09,-3.83,6.56,2.36,-0.73,0.67,0.10,976.20
16.15,-0.97,0.86,-0.49,-3.83,6.56,2.36,-0.73,0.67,0.10,976.20
16.169,-0.46,1.30,-0.89,-3.83,6.56,2.36,-0.73,0.67,0.10,976.20
16.17,-0.46,1.30,-0.89,-3.83,6.56,2.36,-0.01,0.33,0.55,976.20
16.171,-0.46,1.30,-0.89,-8.03,1.55,-1.49,-0.01,0.33,0.55,976.20
16.188,0.70,1.75,-0.52,-8.03,1.55,-1.49,-0.01,0.33,0.55,976.20
16.194,0.70,1.75,-0.52,-8.03,1.55,-1.49,-0.01,0.33,0.55,976.20
16.208,0.92,1.62,-0.30,-8.03,1.55,-1.49,-0.01,0.33,0.55,976.20
16.209,0.92,1.62,-0.30,-8.72,1.78,-1.02,-0.01,0.33,0.55,976.20
16.21,0.92,1.62,-0.30,-8.72,1.78,-1.02,1.09,-1.10,2.66,976.20
16.234,0.42,1.40,-0.46,-8.72,1.78,-1.02,1.09,-1.10,2.66,976.20
