time,gFx,gFy,gFz,ax,ay,az,wx,wy,wz,P
0.002,-0.14,1.00,0.04,-0.13,0.08,0.10,-0.04,-0.03,0.01,1012.82
0.03,-0.12,1.00,0.03,-0.13,0.08,0.10,-0.04,-0.03,0.01,1012.82
0.031,-0.12,1.00,0.03,-0.13,0.08,0.10,-0.03,-0.04,0.01,1012.82
0.031,-0.12,1.00,0.03,0.12,-0.01,0.04,-0.03,-0.04,0.01,1012.82
0.061,-0.17,0.99,0.02,0.12,-0.01,0.04,-0.03,-0.04,0.01,1012.82
0.062,-0.17,0.99,0.02,0.12,-0.01,0.04,-0.03,0.05,0.01,1012.82
0.063,-0.17,0.99,0.02,0.12,-0.01,0.04,-0.03,0.05,0.01,1012.82
0.064,-0.17,0.99,0.02,-0.38,-0.10,-0.10,-0.03,0.05,0.01,1012.82
0.1,-0.13,1.02,0.00,-0.38,-0.10,-0.10,-0.03,0.05,0.01,1012.82
0.101,-0.13,1.02,0.00,-0.38,-0.10,-0.10,-0.04,-0.06,0.06,1012.82
0.101,-0.13,1.02,0.00,-0.04,0.19,-0.24,-0.04,-0.06,0.06,1012.82
0.122,-0.13,1.02,0.00,-0.04,0.19,-0.24,-0.04,-0.06,0.06,1012.81
0.15,-0.13,1.02,0.00,-0.06,-0.00,-0.01,-0.04,-0.06,0.06,1012.81
0.151,-0.13,1.00,0.03,-0.06,-0.00,-0.01,-0.04,-0.06,0.06,1012.81
0.151,-0.13,1.00,0.03,-0.06,-0.00,-0.01,-0.08,-0.07,0.05,1012.81
0.181,-0.17,0.99,0.06,-0.06,-0.00,-0.01,-0.08,-0.07,0.05,1012.81
0.182,-0.17,0.99,0.06,-0.06,-0.00,-0.01,-0.08,-0.02,0.06,1012.81
0.183,-0.17,0.99,0.06,-0.44,-0.03,0.25,-0.08,-0.02,0.06,1012.81
0.183,-0.17,0.99,0.06,-0.44,-0.03,0.25,-0.08,-0.02,0.06,1012.81
0.22,-0.18,0.98,0.11,-0.44,-0.03,0.25,-0.08,-0.02,0.06,1012.81
0.221,-0.18,0.98,0.11,-0.44,-0.03,0.25,-0.04,-0.13,0.13,1012.81
0.222,-0.18,0.98,0.11,-0.56,-0.14,0.66,-0.04,-0.13,0.13,1012.81
0.251,-0.18,0.98,0.11,-0.56,-0.14,0.66,-0.04,-0.13,0.13,1012.81
0.263,-0.18,0.97,0.21,-0.56,-0.14,0.66,-0.04,-0.13,0.13,1012.81
0.265,-0.18,0.97,0.21,-0.56,-0.14,0.66,0.10,-0.23,0.20,1012.81
0.265,-0.18,0.97,0.21,-0.67,-0.27,1.66,0.10,-0.23,0.20,1012.81
0.299,-0.18,0.99,0.16,-0.67,-0.27,1.66,0.10,-0.23,0.20,1012.81
0.3,-0.18,0.99,0.16,-0.67,-0.27,1.66,0.34,-0.38,0.26,1012.81
0.301,-0.18,0.99,0.16,-0.74,-0.05,1.29,0.34,-0.38,0.26,1012.81
0.302,-0.18,0.99,0.16,-0.74,-0.05,1.29,0.34,-0.38,0.26,1012.83
0.338,-0.05,1.00,-0.11,-0.74,-0.05,1.29,0.34,-0.38,0.26,1012.83
0.339,-0.05,1.00,-0.11,-0.74,-0.05,1.29,0.40,-0.18,0.30,1012.83
0.341,-0.05,1.00,-0.11,0.41,0.01,-1.18,0.40,-0.18,0.30,1012.83
0.362,-0.05,1.00,-0.11,0.41,0.01,-1.18,0.40,-0.18,0.30,1012.84
0.379,-0.02,1.01,-0.21,0.41,0.01,-1.18,0.40,-0.18,0.30,1012.84
0.38,-0.02,1.01,-0.21,0.41,0.01,-1.18,0.24,0.16,0.28,1012.84
0.381,-0.02,1.01,-0.21,0.54,0.12,-2.03,0.24,0.16,0.28,1012.84
0.418,0.05,1.01,0.01,0.54,0.12,-2.03,0.24,0.16,0.28,1012.84
0.421,0.05,1.01,0.01,0.54,0.12,-2.03,0.06,0.23,0.27,1012.84
0.423,0.05,1.01,0.01,1.10,0.08,0.18,0.06,0.23,0.27,1012.84
0.424,0.05,1.01,0.01,1.10,0.08,0.18,0.06,0.23,0.27,1012.82
0.463,-0.02,1.05,0.18,1.10,0.08,0.18,0.06,0.23,0.27,1012.82
0.465,-0.02,1.05,0.18,1.10,0.08,0.18,0.11,0.39,0.17,1012.82
0.466,-0.02,1.05,0.18,0.42,0.44,1.82,0.11,0.39,0.17,1012.82
0.491,-0.02,1.05,0.18,0.42,0.44,1.82,0.11,0.39,0.17,1012.82
0.499,-0.20,1.16,0.13,0.42,0.44,1.82,0.11,0.39,0.17,1012.82
0.5,-0.20,1.16,0.13,0.42,0.44,1.82,0.32,0.22,0.13,1012.82
0.501,-0.20,1.16,0.13,-1.38,1.52,1.48,0.32,0.22,0.13,1012.82
0.536,-0.08,1.41,-0.09,-1.38,1.52,1.48,0.32,0.22,0.13,1012.82
0.537,-0.08,1.41,-0.09,-1.38,1.52,1.48,0.45,-0.55,0.21,1012.82
0.538,-0.08,1.41,-0.09,-0.28,3.91,-0.55,0.45,-0.55,0.21,1012.82
0.553,-0.08,1.41,-0.09,-0.28,3.91,-0.55,0.45,-0.55,0.21,1012.82
0.575,0.71,1.84,0.02,-0.28,3.91,-0.55,0.45,-0.55,0.21,1012.82
0.576,0.71,1.84,0.02,-0.28,3.91,-0.55,0.23,-1.25,-0.27,1012.82
0.577,0.71,1.84,0.02,7.43,7.96,0.55,0.23,-1.25,-0.27,1012.82
0.601,0.71,1.84,0.02,7.43,7.96,0.55,0.23,-1.25,-0.27,1012.83
0.615,0.28,1.88,-0.21,7.43,7.96,0.55,0.23,-1.25,-0.27,1012.83
0.616,0.28,1.88,-0.21,7.43,7.96,0.55,0.25,-0.01,-2.22,1012.83
0.616,0.28,1.88,-0.21,4.03,8.27,-1.51,0.25,-0.01,-2.22,1012.83
0.655,-0.28,1.45,-0.24,4.03,8.27,-1.51,0.25,-0.01,-2.22,1012.83
0.656,-0.28,1.45,-0.24,4.03,8.27,-1.51,0.10,0.63,-3.49,1012.83
0.657,-0.28,1.45,-0.24,-0.09,4.28,-1.68,0.10,0.63,-3.49,1012.83
0.664,-0.28,1.45,-0.24,-0.09,4.28,-1.68,0.10,0.63,-3.49,1012.81
0.694,0.05,0.87,0.01,-0.09,4.28,-1.68,0.10,0.63,-3.49,1012.81
0.696,0.05,0.87,0.01,-0.09,4.28,-1.68,-0.17,0.00,-3.23,1012.81
0.696,0.05,0.87,0.01,4.33,-0.98,0.69,-0.17,0.00,-3.23,1012.81
0.721,0.05,0.87,0.01,4.33,-0.98,0.69,-0.17,0.00,-3.23,1012.82
0.735,-0.05,0.59,0.05,4.33,-0.98,0.69,-0.17,0.00,-3.23,1012.82
0.74,-0.05,0.59,0.05,4.33,-0.98,0.69,0.07,0.30,-2.19,1012.82
0.743,-0.05,0.59,0.05,4.05,-3.32,1.13,0.07,0.30,-2.19,1012.82
0.772,0.02,0.53,-0.02,4.05,-3.32,1.13,0.07,0.30,-2.19,1012.82
0.776,0.02,0.53,-0.02,4.05,-3.32,1.13,0.38,-0.06,-0.64,1012.82
0.778,0.02,0.53,-0.02,4.92,-3.65,0.56,0.38,-0.06,-0.64,1012.82
0.809,0.02,0.53,-0.02,4.92,-3.65,0.56,0.38,-0.06,-0.64,1012.81
0.814,0.10,0.38,-0.03,4.92,-3.65,0.56,0.38,-0.06,-0.64,1012.81
0.816,0.10,0.38,-0.03,4.92,-3.65,0.56,0.48,0.00,0.69,1012.81
0.817,0.10,0.38,-0.03,5.34,-5.19,0.64,0.48,0.00,0.69,1012.81
0.841,0.10,0.38,-0.03,5.34,-5.19,0.64,0.48,0.00,0.69,1012.82
0.863,-0.05,0.38,-0.10,5.34,-5.19,0.64,0.48,0.00,0.69,1012.82
0.865,-0.05,0.38,-0.10,5.34,-5.19,0.64,0.49,0.70,1.68,1012.82
0.866,-0.05,0.38,-0.10,3.16,-5.33,0.14,0.49,0.70,1.68,1012.82
0.891,-0.09,0.49,-0.15,3.16,-5.33,0.14,0.49,0.70,1.68,1012.82
0.892,-0.09,0.49,-0.15,3.16,-5.33,0.14,0.28,1.24,2.19,1012.82
0.893,-0.09,0.49,-0.15,1.87,-4.48,-0.07,0.28,1.24,2.19,1012.82
0.901,-0.09,0.49,-0.15,1.87,-4.48,-0.07,0.28,1.24,2.19,1012.81
0.932,-0.49,0.58,-0.36,1.87,-4.48,-0.07,0.28,1.24,2.19,1012.81
0.935,-0.49,0.58,-0.36,1.87,-4.48,-0.07,0.09,1.79,2.00,1012.81
0.937,-0.49,0.58,-0.36,-2.82,-3.64,-1.89,0.09,1.79,2.00,1012.81
0.981,-0.49,0.58,-0.36,-2.82,-3.64,-1.89,0.09,1.79,2.00,1012.81
0.984,-0.80,0.71,-0.42,-2.82,-3.64,-1.89,0.09,1.79,2.00,1012.81
0.985,-0.80,0.71,-0.42,-2.82,-3.64,-1.89,-0.10,1.22,1.30,1012.81
0.986,-0.80,0.71,-0.42,-6.32,-2.48,-2.32,-0.10,1.22,1.30,1012.81
1.027,-1.03,1.24,-0.74,-6.32,-2.48,-2.32,-0.10,1.22,1.30,1012.81
1.035,-1.03,1.24,-0.74,-6.32,-2.48,-2.32,0.32,0.62,-0.24,1012.81
1.037,-1.03,1.24,-0.74,-8.33,2.73,-5.22,0.32,0.62,-0.24,1012.81
1.039,-1.03,1.24,-0.74,-8.33,2.73,-5.22,0.32,0.62,-0.24,1012.80
1.05,-0.62,1.01,-0.07,-8.33,2.73,-5.22,0.32,0.62,-0.24,1012.80
1.051,-0.62,1.01,-0.07,-8.33,2.73,-5.22,0.32,-0.33,-2.09,1012.80
1.053,-0.62,1.01,-0.07,-3.45,0.67,1.42,0.32,-0.33,-2.09,1012.80
1.082,-0.62,1.01,-0.07,-3.45,0.67,1.42,0.32,-0.33,-2.09,1012.80
1.089,0.54,1.07,-0.19,-3.45,0.67,1.42,0.32,-0.33,-2.09,1012.80
1.091,0.54,1.07,-0.19,-3.45,0.67,1.42,-0.22,-0.73,-0.51,1012.80
1.092,0.54,1.07,-0.19,8.00,1.26,0.06,-0.22,-0.73,-0.51,1012.80
1.129,-1.60,0.53,-0.41,8.00,1.26,0.06,-0.22,-0.73,-0.51,1012.80
1.131,-1.60,0.53,-0.41,8.00,1.26,0.06,-0.17,2.79,-1.20,1012.80
1.132,-1.60,0.53,-0.41,-12.58,-3.88,-1.84,-0.17,2.79,-1.20,1012.80
1.141,-1.60,0.53,-0.41,-12.58,-3.88,-1.84,-0.17,2.79,-1.20,1012.80
1.183,-0.68,1.16,-0.22,-12.58,-3.88,-1.84,-0.17,2.79,-1.20,1012.80
1.185,-0.68,1.16,-0.22,-12.58,-3.88,-1.84,-0.19,0.27,-0.02,1012.80
1.186,-0.68,1.16,-0.22,-3.52,2.33,0.01,-0.19,0.27,-0.02,1012.80
1.215,-0.68,1.16,-0.22,-3.52,2.33,0.01,-0.19,0.27,-0.02,1012.81
1.217,-0.18,1.14,-0.07,-3.52,2.33,0.01,-0.19,0.27,-0.02,1012.81
1.218,-0.18,1.14,-0.07,-3.52,2.33,0.01,-0.17,-0.19,0.33,1012.81
1.22,-0.18,1.14,-0.07,1.22,1.97,1.39,-0.17,-0.19,0.33,1012.81
1.254,-0.71,0.92,-0.18,1.22,1.97,1.39,-0.17,-0.19,0.33,1012.81
1.257,-0.71,0.92,-0.18,1.22,1.97,1.39,0.05,0.94,0.40,1012.81
1.258,-0.71,0.92,-0.18,-4.10,-0.17,0.41,0.05,0.94,0.40,1012.81
1.263,-0.71,0.92,-0.18,-4.10,-0.17,0.41,0.05,0.94,0.40,1012.82
1.29,-0.36,1.01,-0.31,-4.10,-0.17,0.41,0.05,0.94,0.40,1012.82
1.292,-0.36,1.01,-0.31,-4.10,-0.17,0.41,0.07,-0.18,0.75,1012.82
1.292,-0.36,1.01,-0.31,-0.93,0.57,-0.90,0.07,-0.18,0.75,1012.82
1.32,-0.36,1.01,-0.31,-0.93,0.57,-0.90,0.07,-0.18,0.75,1012.82
1.325,-0.13,0.92,-0.30,-0.93,0.57,-0.90,0.07,-0.18,0.75,1012.82
1.326,-0.13,0.92,-0.30,-0.93,0.57,-0.90,0.01,-0.68,0.80,1012.82
1.328,-0.13,0.92,-0.30,1.12,-0.35,-0.85,0.01,-0.68,0.80,1012.82
1.386,-0.19,0.89,-0.24,1.12,-0.35,-0.85,0.01,-0.68,0.80,1012.82
1.388,-0.19,0.89,-0.24,1.12,-0.35,-0.85,-0.05,-0.27,0.75,1012.82
1.388,-0.19,0.89,-0.24,0.28,-0.67,-0.28,-0.05,-0.27,0.75,1012.82
1.389,-0.19,0.89,-0.24,0.28,-0.67,-0.28,-0.05,-0.27,0.75,1012.80
1.428,-0.00,0.90,-0.12,0.28,-0.67,-0.28,-0.05,-0.27,0.75,1012.80
1.429,-0.00,0.90,-0.12,0.28,-0.67,-0.28,-0.05,-0.39,0.68,1012.80
1.429,-0.00,0.90,-0.12,1.83,-0.67,0.90,-0.05,-0.39,0.68,1012.80
1.439,-0.00,0.90,-0.12,1.83,-0.67,0.90,-0.05,-0.39,0.68,1012.80
1.446,0.10,0.95,-0.16,1.83,-0.67,0.90,-0.05,-0.39,0.68,1012.80
1.447,0.10,0.95,-0.16,1.83,-0.67,0.90,0.02,-0.24,0.43,1012.80
1.448,0.10,0.95,-0.16,2.68,-0.23,0.44,0.02,-0.24,0.43,1012.80
1.489,0.13,1.06,-0.30,2.68,-0.23,0.44,0.02,-0.24,0.43,1012.80
1.491,0.13,1.06,-0.30,2.68,-0.23,0.44,0.02,0.06,0.11,1012.80
1.493,0.13,1.06,-0.30,2.88,0.88,-0.93,0.02,0.06,0.11,1012.80
1.5,0.13,1.06,-0.30,2.88,0.88,-0.93,0.02,0.06,0.11,1012.80
1.523,-0.07,1.20,-0.32,2.88,0.88,-0.93,0.02,0.06,0.11,1012.80
1.525,-0.07,1.20,-0.32,2.88,0.88,-0.93,-0.07,0.15,-0.12,1012.80
1.526,-0.07,1.20,-0.32,0.93,2.21,-1.11,-0.07,0.15,-0.12,1012.80
1.56,-0.07,1.20,-0.32,0.93,2.21,-1.11,-0.07,0.15,-0.12,1012.79
1.565,-0.07,1.20,-0.32,-0.74,3.38,-0.69,-0.07,0.15,-0.12,1012.79
1.566,-0.25,1.33,-0.27,-0.74,3.38,-0.69,-0.07,0.15,-0.12,1012.79
1.566,-0.25,1.33,-0.27,-0.74,3.38,-0.69,-0.20,-0.13,-0.13,1012.79
1.602,-0.32,1.62,-0.11,-0.74,3.38,-0.69,-0.20,-0.13,-0.13,1012.79
1.605,-0.32,1.62,-0.11,-0.74,3.38,-0.69,-0.25,-0.71,0.06,1012.79
1.607,-0.32,1.62,-0.11,-1.42,6.09,0.75,-0.25,-0.71,0.06,1012.79
1.62,-0.32,1.62,-0.11,-1.42,6.09,0.75,-0.25,-0.71,0.06,1012.80
1.644,0.69,1.65,0.10,-1.42,6.09,0.75,-0.25,-0.71,0.06,1012.80
1.647,0.69,1.65,0.10,-1.42,6.09,0.75,-0.53,-1.00,0.08,1012.80
1.649,0.69,1.65,0.10,8.40,6.26,2.50,-0.53,-1.00,0.08,1012.80
1.68,0.69,1.65,0.10,8.40,6.26,2.50,-0.53,-1.00,0.08,1012.81
1.684,1.12,1.71,-0.03,8.40,6.26,2.50,-0.53,-1.00,0.08,1012.81
1.684,1.12,1.71,-0.03,8.40,6.26,2.50,-0.27,0.59,-1.25,1012.81
1.685,1.12,1.71,-0.03,12.87,6.78,1.13,-0.27,0.59,-1.25,1012.81
1.721,-0.79,1.88,-0.55,12.87,6.78,1.13,-0.27,0.59,-1.25,1012.81
1.725,-0.79,1.88,-0.55,12.87,6.78,1.13,0.81,1.33,-3.67,1012.81
1.726,-0.79,1.88,-0.55,-4.52,8.73,-3.48,0.81,1.33,-3.67,1012.81
1.742,-0.79,1.88,-0.55,-4.52,8.73,-3.48,0.81,1.33,-3.67,1012.81
1.764,-0.89,1.33,-0.49,-4.52,8.73,-3.48,0.81,1.33,-3.67,1012.81
1.767,-0.89,1.33,-0.49,-4.52,8.73,-3.48,0.89,-1.05,-3.78,1012.81
1.769,-0.89,1.33,-0.49,-3.96,3.96,-2.66,0.89,-1.05,-3.78,1012.81
1.8,-0.32,1.06,-0.16,-3.96,3.96,-2.66,0.89,-1.05,-3.78,1012.81
1.801,-0.32,1.06,-0.16,-3.96,3.96,-2.66,0.42,-2.46,-2.86,1012.81
1.802,-0.32,1.06,-0.16,2.79,1.98,0.15,0.42,-2.46,-2.86,1012.81
1.803,-0.32,1.06,-0.16,2.79,1.98,0.15,0.42,-2.46,-2.86,1012.79
1.84,-0.22,0.78,0.07,2.79,1.98,0.15,0.42,-2.46,-2.86,1012.79
1.841,-0.22,0.78,0.07,2.79,1.98,0.15,0.06,-1.58,-2.19,1012.79
1.842,-0.22,0.78,0.07,4.53,-0.23,1.98,0.06,-1.58,-2.19,1012.79
1.86,-0.22,0.78,0.07,4.53,-0.23,1.98,0.06,-1.58,-2.19,1012.79
1.889,-0.19,0.48,0.03,4.53,-0.23,1.98,0.06,-1.58,-2.19,1012.79
1.891,-0.19,0.48,0.03,4.53,-0.23,1.98,-0.04,-0.25,-1.25,1012.79
1.892,-0.19,0.48,0.03,5.15,-2.83,1.53,-0.04,-0.25,-1.25,1012.79
1.939,-0.17,0.18,0.02,5.15,-2.83,1.53,-0.04,-0.25,-1.25,1012.79
1.943,-0.17,0.18,0.02,5.15,-2.83,1.53,-0.07,0.54,-0.01,1012.79
1.944,-0.17,0.18,0.02,5.15,-2.83,1.53,-0.07,0.54,-0.01,1012.78
1.945,-0.17,0.18,0.02,5.19,-5.67,1.48,-0.07,0.54,-0.01,1012.78
1.96,-0.27,0.02,0.00,5.19,-5.67,1.48,-0.07,0.54,-0.01,1012.78
1.961,-0.27,0.02,0.00,5.19,-5.67,1.48,-0.08,0.94,1.29,1012.78
1.961,-0.27,0.02,0.00,3.73,-7.44,1.57,-0.08,0.94,1.29,1012.78
1.982,-0.27,0.02,0.00,3.73,-7.44,1.57,-0.08,0.94,1.29,1012.78
2.013,-0.43,-0.09,-0.01,3.73,-7.44,1.57,-0.08,0.94,1.29,1012.78
2.015,-0.43,-0.09,-0.01,3.73,-7.44,1.57,-0.13,0.82,2.45,1012.78
2.015,-0.43,-0.09,-0.01,1.30,-8.95,1.54,-0.13,0.82,2.45,1012.78
2.04,-0.61,-0.14,-0.04,1.30,-8.95,1.54,-0.13,0.82,2.45,1012.78
2.045,-0.61,-0.14,-0.04,1.30,-8.95,1.54,-0.10,0.15,3.20,1012.78
2.046,-0.61,-0.14,-0.04,1.30,-8.95,1.54,-0.10,0.15,3.20,1012.78
2.047,-0.61,-0.14,-0.04,-1.49,-9.87,1.25,-0.10,0.15,3.20,1012.78
2.076,-0.66,0.17,-0.16,-1.49,-9.87,1.25,-0.10,0.15,3.20,1012.78
2.077,-0.66,0.17,-0.16,-1.49,-9.87,1.25,0.03,-0.30,3.08,1012.78
2.078,-0.66,0.17,-0.16,-2.96,-7.19,-0.03,0.03,-0.30,3.08,1012.78
2.124,-0.66,0.17,-0.16,-2.96,-7.19,-0.03,0.03,-0.30,3.08,1012.77
2.128,-0.66,0.17,-0.16,-5.70,-7.20,0.33,0.03,-0.30,3.08,1012.77
2.13,-0.88,0.18,-0.14,-5.70,-7.20,0.33,0.03,-0.30,3.08,1012.77
2.132,-0.88,0.18,-0.14,-5.70,-7.20,0.33,0.07,0.78,1.66,1012.77
2.156,-1.86,1.39,-0.94,-5.70,-7.20,0.33,0.07,0.78,1.66,1012.77
2.158,-1.86,1.39,-0.94,-5.70,-7.20,0.33,0.89,1.81,-0.51,1012.77
2.159,-1.86,1.39,-0.94,-5.70,-7.20,0.33,0.89,1.81,-0.51,1012.76
2.16,-1.86,1.39,-0.94,-15.01,4.69,-6.89,0.89,1.81,-0.51,1012.76
2.23,-1.86,1.39,-0.94,5.96,8.09,-1.47,0.89,1.81,-0.51,1012.76
2.232,0.25,1.74,-0.36,5.96,8.09,-1.47,0.89,1.81,-0.51,1012.76
2.233,0.25,1.74,-0.36,5.96,8.09,-1.47,-0.30,-1.29,-0.74,1012.76
2.234,0.25,1.74,-0.36,5.96,8.09,-1.47,-0.30,-1.29,-0.74,1012.74
2.236,-0.37,0.31,-0.02,5.96,8.09,-1.47,-0.30,-1.29,-0.74,1012.74
2.237,-0.37,0.31,-0.02,5.96,8.09,-1.47,-0.39,1.05,-0.25,1012.74
2.238,-0.37,0.31,-0.02,-0.14,-5.83,1.90,-0.39,1.05,-0.25,1012.74
2.279,-0.37,0.31,-0.02,-9.85,1.85,-1.74,-0.39,1.05,-0.25,1012.74
2.282,-1.37,1.09,-0.42,-9.85,1.85,-1.74,-0.39,1.05,-0.25,1012.74
2.284,-1.37,1.09,-0.42,-9.85,1.85,-1.74,0.08,2.01,-0.21,1012.74
2.285,-1.37,1.09,-0.42,-9.85,1.85,-1.74,0.08,2.01,-0.21,1012.74
2.314,-0.22,1.14,-0.15,-9.85,1.85,-1.74,0.08,2.01,-0.21,1012.74
2.316,-0.22,1.14,-0.15,-9.85,1.85,-1.74,-0.11,-0.50,0.67,1012.74
2.316,-0.22,1.14,-0.15,1.15,2.16,0.80,-0.11,-0.50,0.67,1012.74
2.338,-0.22,1.14,-0.15,1.15,2.16,0.80,-0.11,-0.50,0.67,1012.74
2.354,-0.45,0.94,-0.19,1.15,2.16,0.80,-0.11,-0.50,0.67,1012.74
2.357,-0.45,0.94,-0.19,1.15,2.16,0.80,0.06,-0.04,0.69,1012.74
2.358,-0.45,0.94,-0.19,-1.33,0.12,0.37,0.06,-0.04,0.69,1012.74
2.401,-0.32,0.94,-0.35,-1.33,0.12,0.37,0.06,-0.04,0.69,1012.74
2.404,-0.32,0.94,-0.35,-1.33,0.12,0.37,0.06,-0.13,0.79,1012.74
2.404,-0.32,0.94,-0.35,-0.29,0.04,-1.15,0.06,-0.13,0.79,1012.74
2.405,-0.32,0.94,-0.35,-0.29,0.04,-1.15,0.06,-0.13,0.79,1012.74
2.434,-0.13,0.92,-0.27,-0.29,0.04,-1.15,0.06,-0.13,0.79,1012.74
2.436,-0.13,0.92,-0.27,-0.29,0.04,-1.15,-0.05,-0.53,0.81,1012.74
2.437,-0.13,0.92,-0.27,1.27,-0.29,-0.37,-0.05,-0.53,0.81,1012.74
2.458,-0.13,0.92,-0.27,1.27,-0.29,-0.37,-0.05,-0.53,0.81,1012.75
2.473,-0.03,0.92,-0.18,1.27,-0.29,-0.37,-0.05,-0.53,0.81,1012.75
2.475,-0.03,0.92,-0.18,1.27,-0.29,-0.37,-0.07,-0.31,0.69,1012.75
2.476,-0.03,0.92,-0.18,2.01,-0.35,0.45,-0.07,-0.31,0.69,1012.75
2.513,0.03,0.93,-0.20,2.01,-0.35,0.45,-0.07,-0.31,0.69,1012.75
2.514,0.03,0.93,-0.20,2.01,-0.35,0.45,-0.05,-0.20,0.43,1012.75
2.514,0.03,0.93,-0.20,2.43,-0.31,0.14,-0.05,-0.20,0.43,1012.75
2.516,0.03,0.93,-0.20,2.43,-0.31,0.14,-0.05,-0.20,0.43,1012.76
2.55,0.13,1.06,-0.19,2.43,-0.31,0.14,-0.05,-0.20,0.43,1012.76
2.553,0.13,1.06,-0.19,2.43,-0.31,0.14,-0.09,-0.16,0.13,1012.76
2.554,0.13,1.06,-0.19,3.30,1.01,0.18,-0.09,-0.16,0.13,1012.76
2.578,0.13,1.06,-0.19,3.30,1.01,0.18,-0.09,-0.16,0.13,1012.77
2.605,0.09,1.14,-0.19,3.30,1.01,0.18,-0.09,-0.16,0.13,1012.77
2.607,0.09,1.14,-0.19,3.30,1.01,0.18,-0.04,-0.11,-0.14,1012.77
2.607,0.09,1.14,-0.19,2.98,1.72,0.21,-0.04,-0.11,-0.14,1012.77
2.642,-0.30,1.32,-0.50,2.98,1.72,0.21,-0.04,-0.11,-0.14,1012.77
2.644,-0.30,1.32,-0.50,2.98,1.72,0.21,-0.03,-0.06,-0.29,1012.77
2.645,-0.30,1.32,-0.50,-0.73,3.49,-2.84,-0.03,-0.06,-0.29,1012.77
2.645,-0.30,1.32,-0.50,-0.73,3.49,-2.84,-0.03,-0.06,-0.29,1012.76
2.67,-0.55,1.44,-0.26,-0.73,3.49,-2.84,-0.03,-0.06,-0.29,1012.76
2.671,-0.55,1.44,-0.26,-0.73,3.49,-2.84,-0.26,-0.77,-0.05,1012.76
2.673,-0.55,1.44,-0.26,-3.04,4.58,-0.65,-0.26,-0.77,-0.05,1012.76
2.71,-0.55,1.44,-0.26,-3.04,4.58,-0.65,-0.26,-0.77,-0.05,1012.76
2.712,0.12,1.75,0.18,-3.04,4.58,-0.65,-0.26,-0.77,-0.05,1012.76
2.713,0.12,1.75,0.18,-3.04,4.58,-0.65,-0.42,-1.68,0.20,1012.76
2.715,0.12,1.75,0.18,3.50,7.42,3.28,-0.42,-1.68,0.20,1012.76
2.751,0.12,1.75,0.18,13.39,5.18,1.96,-0.42,-1.68,0.20,1012.76
2.756,1.14,1.53,0.08,13.39,5.18,1.96,-0.42,-1.68,0.20,1012.76
2.758,1.14,1.53,0.08,13.39,5.18,1.96,-0.64,-0.59,-0.20,1012.76
2.759,1.14,1.53,0.08,13.39,5.18,1.96,-0.64,-0.59,-0.20,1012.77
2.802,0.50,1.76,-0.30,13.39,5.18,1.96,-0.64,-0.59,-0.20,1012.77
2.805,0.50,1.76,-0.30,13.39,5.18,1.96,-0.03,1.52,-1.97,1012.77
2.805,0.50,1.76,-0.30,7.63,7.47,-1.55,-0.03,1.52,-1.97,1012.77
2.841,0.50,1.76,-0.30,7.63,7.47,-1.55,-0.03,1.52,-1.97,1012.77
2.846,-1.18,1.69,-0.62,7.63,7.47,-1.55,-0.03,1.52,-1.97,1012.77
2.848,-1.18,1.69,-0.62,7.63,7.47,-1.55,0.93,1.05,-3.87,1012.77
2.849,-1.18,1.69,-0.62,-7.28,7.23,-4.10,0.93,1.05,-3.87,1012.77
2.867,-0.68,1.28,-0.48,-7.28,7.23,-4.10,0.93,1.05,-3.87,1012.77
2.868,-0.68,1.28,-0.48,-7.28,7.23,-4.10,0.78,-1.58,-3.26,1012.77
2.869,-0.68,1.28,-0.48,-1.13,3.84,-2.78,0.78,-1.58,-3.26,1012.77
2.877,-0.68,1.28,-0.48,-1.13,3.84,-2.78,0.78,-1.58,-3.26,1012.76
2.909,-0.42,0.96,-0.16,-1.13,3.84,-2.78,0.78,-1.58,-3.26,1012.76
2.914,-0.42,0.96,-0.16,-1.13,3.84,-2.78,0.22,-2.18,-2.51,1012.76
2.916,-0.42,0.96,-0.16,2.40,1.27,-0.08,0.22,-2.18,-2.51,1012.76
2.937,-0.42,0.96,-0.16,2.40,1.27,-0.08,0.22,-2.18,-2.51,1012.75
2.949,-0.22,0.58,-0.02,2.40,1.27,-0.08,0.22,-2.18,-2.51,1012.75
2.951,-0.22,0.58,-0.02,2.40,1.27,-0.08,-0.16,-1.19,-1.73,1012.75
2.952,-0.22,0.58,-0.02,4.85,-1.89,0.97,-0.16,-1.19,-1.73,1012.75
3.002,-0.00,0.20,-0.07,4.85,-1.89,0.97,-0.16,-1.19,-1.73,1012.75
3.005,-0.00,0.20,-0.07,4.85,-1.89,0.97,-0.34,0.21,-0.63,1012.75
3.006,-0.00,0.20,-0.07,7.02,-5.39,0.36,-0.34,0.21,-0.63,1012.75
3.007,-0.00,0.20,-0.07,7.02,-5.39,0.36,-0.34,0.21,-0.63,1012.75
3.035,-0.20,-0.05,-0.12,7.02,-5.39,0.36,-0.34,0.21,-0.63,1012.75
3.038,-0.20,-0.05,-0.12,7.02,-5.39,0.36,-0.32,1.40,0.76,1012.75
3.039,-0.20,-0.05,-0.12,4.74,-7.97,0.17,-0.32,1.40,0.76,1012.75
3.057,-0.20,-0.05,-0.12,4.74,-7.97,0.17,-0.32,1.40,0.76,1012.74
3.067,-0.27,-0.21,0.05,4.74,-7.97,0.17,-0.32,1.40,0.76,1012.74
3.071,-0.27,-0.21,0.05,4.74,-7.97,0.17,-0.29,1.01,2.20,1012.74
3.073,-0.27,-0.21,0.05,3.27,-9.92,1.94,-0.29,1.01,2.20,1012.74
3.12,-0.24,-0.31,0.05,3.27,-9.92,1.94,-0.29,1.01,2.20,1012.74
3.124,-0.24,-0.31,0.05,3.27,-9.92,1.94,-0.06,0.99,3.15,1012.74
3.125,-0.24,-0.31,0.05,2.45,-11.38,2.16,-0.06,0.99,3.15,1012.74
3.126,-0.24,-0.31,0.05,2.45,-11.38,2.16,-0.06,0.99,3.15,1012.73
3.156,-0.74,-0.16,-0.19,2.45,-11.38,2.16,-0.06,0.99,3.15,1012.73
3.159,-0.74,-0.16,-0.19,2.45,-11.38,2.16,0.27,1.65,3.27,1012.73
3.161,-0.74,-0.16,-0.19,-3.59,-10.24,0.11,0.27,1.65,3.27,1012.73
3.176,-0.74,-0.16,-0.19,-3.59,-10.24,0.11,0.27,1.65,3.27,1012.72
3.198,-0.74,-0.16,-0.19,-9.50,-8.48,-1.70,0.27,1.65,3.27,1012.72
3.2,-1.26,0.03,-0.42,-9.50,-8.48,-1.70,0.27,1.65,3.27,1012.72
3.201,-1.26,0.03,-0.42,-9.50,-8.48,-1.70,0.36,1.89,2.25,1012.72
3.236,-1.95,2.62,-1.00,-9.50,-8.48,-1.70,0.36,1.89,2.25,1012.72
3.241,-1.95,2.62,-1.00,-9.50,-8.48,-1.70,0.75,1.41,-0.89,1012.72
3.244,-1.95,2.62,-1.00,-15.83,16.77,-6.85,0.75,1.41,-0.89,1012.72
3.247,-1.95,2.62,-1.00,-15.83,16.77,-6.85,0.75,1.41,-0.89,1012.72
3.262,0.31,0.65,-0.16,-15.83,16.77,-6.85,0.75,1.41,-0.89,1012.72
3.266,0.31,0.65,-0.16,-15.83,16.77,-6.85,-0.97,-2.29,-1.28,1012.72
3.267,0.31,0.65,-0.16,6.85,-2.36,0.73,-0.97,-2.29,-1.28,1012.72
3.297,0.31,0.65,-0.16,6.85,-2.36,0.73,-0.97,-2.29,-1.28,1012.72
3.326,-0.64,0.42,0.03,6.85,-2.36,0.73,-0.97,-2.29,-1.28,1012.72
3.328,-0.64,0.42,0.03,6.85,-2.36,0.73,-0.22,2.23,0.03,1012.72
3.33,-0.64,0.42,0.03,-2.60,-4.59,2.71,-0.22,2.23,0.03,1012.72
3.341,-1.54,1.28,-0.42,-2.60,-4.59,2.71,-0.22,2.23,0.03,1012.72
3.343,-1.54,1.28,-0.42,-2.60,-4.59,2.71,-0.04,1.39,-0.40,1012.72
3.345,-1.54,1.28,-0.42,-11.29,3.81,-1.46,-0.04,1.39,-0.40,1012.72
3.375,-1.54,1.28,-0.42,-11.29,3.81,-1.46,-0.04,1.39,-0.40,1012.72
3.384,-0.07,0.87,-0.19,-11.29,3.81,-1.46,-0.04,1.39,-0.40,1012.72
3.387,-0.07,0.87,-0.19,-11.29,3.81,-1.46,-0.05,-0.88,0.97,1012.72
3.389,-0.07,0.87,-0.19,2.86,-0.30,0.68,-0.05,-0.88,0.97,1012.72
3.416,-0.07,0.87,-0.19,2.86,-0.30,0.68,-0.05,-0.88,0.97,1012.72
3.419,-0.37,0.97,-0.38,2.86,-0.30,0.68,-0.05,-0.88,0.97,1012.72
3.421,-0.37,0.97,-0.38,2.86,-0.30,0.68,0.05,0.01,0.63,1012.72
3.421,-0.37,0.97,-0.38,-0.32,0.59,-1.21,0.05,0.01,0.63,1012.72
3.461,-0.42,0.86,-0.39,-0.32,0.59,-1.21,0.05,0.01,0.63,1012.72
3.465,-0.42,0.86,-0.39,-0.32,0.59,-1.21,-0.18,0.12,0.68,1012.72
3.467,-0.42,0.86,-0.39,-1.01,-0.65,-1.26,-0.18,0.12,0.68,1012.72
3.476,-0.42,0.86,-0.39,-1.01,-0.65,-1.26,-0.18,0.12,0.68,1012.72
3.501,-0.22,0.90,-0.11,-1.01,-0.65,-1.26,-0.18,0.12,0.68,1012.72
3.504,-0.22,0.90,-0.11,-1.01,-0.65,-1.26,-0.29,-0.14,0.79,1012.72
3.505,-0.22,0.90,-0.11,0.63,-0.36,1.27,-0.29,-0.14,0.79,1012.72
3.536,-0.22,0.90,-0.11,0.63,-0.36,1.27,-0.29,-0.14,0.79,1012.73
3.538,-0.10,0.90,-0.08,0.63,-0.36,1.27,-0.29,-0.14,0.79,1012.73
3.539,-0.10,0.90,-0.08,0.63,-0.36,1.27,-0.16,0.01,0.66,1012.73
3.54,-0.10,0.90,-0.08,1.55,-0.39,1.50,-0.16,0.01,0.66,1012.73
3.58,0.13,0.94,-0.22,1.55,-0.39,1.50,-0.16,0.01,0.66,1012.73
3.585,0.13,0.94,-0.22,3.63,-0.04,0.07,-0.16,0.01,0.66,1012.73
3.587,0.13,0.94,-0.22,3.63,-0.04,0.07,-0.04,-0.14,0.38,1012.73
3.61,0.13,0.94,-0.22,3.63,-0.04,0.07,-0.04,-0.14,0.38,1012.74
3.657,0.31,1.08,-0.24,3.63,-0.04,0.07,-0.04,-0.14,0.38,1012.74
3.658,0.31,1.08,-0.24,3.63,-0.04,0.07,-0.01,-0.03,0.03,1012.74
3.659,0.31,1.08,-0.24,5.30,1.33,-0.08,-0.01,-0.03,0.03,1012.74
3.66,0.31,1.08,-0.24,5.30,1.33,-0.08,-0.01,-0.03,0.03,1012.73
3.661,-0.26,1.18,-0.29,5.30,1.33,-0.08,-0.01,-0.03,0.03,1012.73
3.661,-0.26,1.18,-0.29,5.30,1.33,-0.08,0.00,0.18,-0.39,1012.73
3.662,-0.26,1.18,-0.29,-0.18,2.27,-0.53,0.00,0.18,-0.39,1012.73
3.697,-0.45,1.24,-0.38,-0.18,2.27,-0.53,0.00,0.18,-0.39,1012.73
3.698,-0.45,1.24,-0.38,-1.80,2.80,-1.50,0.00,0.18,-0.39,1012.73
3.699,-0.45,1.24,-0.38,-1.80,2.80,-1.50,-0.07,-0.46,-0.35,1012.73
3.729,-0.45,1.24,-0.38,-1.80,2.80,-1.50,-0.07,-0.46,-0.35,1012.72
3.737,-0.31,1.63,-0.19,-1.80,2.80,-1.50,-0.07,-0.46,-0.35,1012.72
3.739,-0.31,1.63,-0.19,-1.80,2.80,-1.50,-0.15,-0.82,-0.15,1012.72
3.74,-0.31,1.63,-0.19,-0.31,6.57,0.24,-0.15,-0.82,-0.15,1012.72
3.776,0.37,1.63,0.01,-0.31,6.57,0.24,-0.15,-0.82,-0.15,1012.72
3.783,0.37,1.63,0.01,-0.31,6.57,0.24,-0.39,-0.30,-0.13,1012.72
3.786,0.37,1.63,0.01,-0.31,6.57,0.24,-0.39,-0.30,-0.13,1012.71
3.788,0.37,1.63,0.01,6.34,6.40,2.02,-0.39,-0.30,-0.13,1012.71
3.817,0.61,1.74,-0.19,6.34,6.40,2.02,-0.39,-0.30,-0.13,1012.71
3.82,0.61,1.74,-0.19,6.34,6.40,2.02,-0.19,0.50,-1.11,1012.71
3.824,0.61,1.74,-0.19,8.92,7.44,0.01,-0.19,0.50,-1.11,1012.71
3.851,0.61,1.74,-0.19,8.92,7.44,0.01,-0.19,0.50,-1.11,1012.73
3.856,-0.98,2.01,-0.33,8.92,7.44,0.01,-0.19,0.50,-1.11,1012.73
3.858,-0.98,2.01,-0.33,8.92,7.44,0.01,0.66,0.41,-3.57,1012.73
3.859,-0.98,2.01,-0.33,-5.29,10.46,-1.05,0.66,0.41,-3.57,1012.73
3.901,-0.70,1.53,-0.45,-5.29,10.46,-1.05,0.66,0.41,-3.57,1012.73
3.904,-0.70,1.53,-0.45,-5.29,10.46,-1.05,0.97,-1.87,-4.10,1012.73
3.905,-0.70,1.53,-0.45,-0.93,6.58,-2.25,0.97,-1.87,-4.10,1012.73
3.906,-0.70,1.53,-0.45,-0.93,6.58,-2.25,0.97,-1.87,-4.10,1012.74
3.936,-0.57,1.05,-0.20,-0.93,6.58,-2.25,0.97,-1.87,-4.10,1012.74
3.938,-0.57,1.05,-0.20,-0.93,6.58,-2.25,0.68,-2.03,-3.39,1012.74
3.939,-0.57,1.05,-0.20,1.52,2.75,-0.04,0.68,-2.03,-3.39,1012.74
3.955,-0.57,1.05,-0.20,1.52,2.75,-0.04,0.68,-2.03,-3.39,1012.74
3.975,-0.42,0.73,0.02,1.52,2.75,-0.04,0.68,-2.03,-3.39,1012.74
3.977,-0.42,0.73,0.02,1.52,2.75,-0.04,0.30,-1.58,-2.27,1012.74
3.978,-0.42,0.73,0.02,3.61,0.30,1.61,0.30,-1.58,-2.27,1012.74
4.015,-0.02,0.27,0.11,3.61,0.30,1.61,0.30,-1.58,-2.27,1012.74
4.019,-0.02,0.27,0.11,3.61,0.30,1.61,0.18,-0.94,-0.96,1012.74
4.02,-0.02,0.27,0.11,3.61,0.30,1.61,0.18,-0.94,-0.96,1012.73
4.022,-0.02,0.27,0.11,7.75,-3.82,2.28,0.18,-0.94,-0.96,1012.73
4.053,-0.09,0.08,0.03,7.75,-3.82,2.28,0.18,-0.94,-0.96,1012.73
4.056,-0.09,0.08,0.03,7.75,-3.82,2.28,0.25,0.59,0.37,1012.73
4.057,-0.09,0.08,0.03,6.82,-5.64,1.71,0.25,0.59,0.37,1012.73
4.075,-0.09,0.08,0.03,6.82,-5.64,1.71,0.25,0.59,0.37,1012.72
4.095,-0.29,-0.08,0.03,6.82,-5.64,1.71,0.25,0.59,0.37,1012.72
4.098,-0.29,-0.08,0.03,6.82,-5.64,1.71,0.13,1.37,1.74,1012.72
4.101,-0.29,-0.08,0.03,4.25,-7.60,2.07,0.13,1.37,1.74,1012.72
4.135,-0.29,-0.08,0.03,1.00,-9.29,1.79,0.13,1.37,1.74,1012.72
4.136,-0.53,-0.19,-0.02,1.00,-9.29,1.79,0.13,1.37,1.74,1012.72
4.137,-0.53,-0.19,-0.02,1.00,-9.29,1.79,-0.03,0.99,2.94,1012.72
4.137,-0.53,-0.19,-0.02,1.00,-9.29,1.79,-0.03,0.99,2.94,1012.69
4.171,-0.61,-0.23,0.04,1.00,-9.29,1.79,-0.03,0.99,2.94,1012.69
4.173,-0.61,-0.23,0.04,1.00,-9.29,1.79,-0.11,-0.21,3.61,1012.69
4.174,-0.61,-0.23,0.04,-0.97,-10.31,2.28,-0.11,-0.21,3.61,1012.69
4.194,-0.61,-0.23,0.04,-0.97,-10.31,2.28,-0.11,-0.21,3.61,1012.68
4.211,-0.62,-0.05,-0.12,-0.97,-10.31,2.28,-0.11,-0.21,3.61,1012.68
4.216,-0.62,-0.05,-0.12,-0.97,-10.31,2.28,-0.13,-0.03,3.01,1012.68
4.218,-0.62,-0.05,-0.12,-2.03,-9.00,0.71,-0.13,-0.03,3.01,1012.68
4.251,-1.43,0.12,-0.49,-2.03,-9.00,0.71,-0.13,-0.03,3.01,1012.68
4.252,-1.43,0.12,-0.49,-2.03,-9.00,0.71,-0.04,1.94,1.14,1012.68
4.253,-1.43,0.12,-0.49,-10.26,-7.33,-2.65,-0.04,1.94,1.14,1012.68
4.254,-1.43,0.12,-0.49,-10.26,-7.33,-2.65,-0.04,1.94,1.14,1012.67
4.299,-1.91,2.45,-0.98,-10.26,-7.33,-2.65,-0.04,1.94,1.14,1012.67
4.302,-1.91,2.45,-0.98,-10.26,-7.33,-2.65,0.51,0.96,-1.92,1012.67
4.304,-1.91,2.45,-0.98,-14.16,15.52,-6.98,0.51,0.96,-1.92,1012.67
4.316,-1.91,2.45,-0.98,-14.16,15.52,-6.98,0.51,0.96,-1.92,1012.67
4.338,1.19,0.41,-0.10,-14.16,15.52,-6.98,0.51,0.96,-1.92,1012.67
4.34,1.19,0.41,-0.10,-14.16,15.52,-6.98,-0.43,-1.85,1.06,1012.67
4.341,1.19,0.41,-0.10,15.73,-4.59,1.09,-0.43,-1.85,1.06,1012.67
4.368,-1.61,0.78,-0.32,15.73,-4.59,1.09,-0.43,-1.85,1.06,1012.67
4.369,-1.61,0.78,-0.32,15.73,-4.59,1.09,-0.03,2.66,-0.88,1012.67
4.37,-1.61,0.78,-0.32,-11.46,-0.85,-0.58,-0.03,2.66,-0.88,1012.67
4.374,-1.61,0.78,-0.32,-11.46,-0.85,-0.58,-0.03,2.66,-0.88,1012.66
4.423,-0.88,1.14,-0.35,-11.46,-0.85,-0.58,-0.03,2.66,-0.88,1012.66
4.425,-0.88,1.14,-0.35,-11.46,-0.85,-0.58,-0.21,0.68,0.34,1012.66
4.426,-0.88,1.14,-0.35,-4.44,2.58,-0.81,-0.21,0.68,0.34,1012.66
4.463,-0.88,1.14,-0.35,-4.44,2.58,-0.81,-0.21,0.68,0.34,1012.68
4.466,-0.56,0.91,-0.17,-4.44,2.58,-0.81,-0.21,0.68,0.34,1012.68
4.467,-0.56,0.91,-0.17,-1.49,0.22,0.80,-0.21,0.68,0.34,1012.68
4.469,-0.56,0.91,-0.17,-1.49,0.22,0.80,-0.20,-0.45,0.80,1012.68
4.487,-0.34,0.90,-0.18,-1.49,0.22,0.80,-0.20,-0.45,0.80,1012.68
4.487,-0.34,0.90,-0.18,-1.49,0.22,0.80,-0.10,-0.14,0.99,1012.68
4.488,-0.34,0.90,-0.18,0.29,-0.11,0.63,-0.10,-0.14,0.99,1012.68
4.493,-0.34,0.90,-0.18,0.29,-0.11,0.63,-0.10,-0.14,0.99,1012.68
4.527,-0.52,0.83,-0.34,0.29,-0.11,0.63,-0.10,-0.14,0.99,1012.68
4.531,-0.52,0.83,-0.34,0.29,-0.11,0.63,-0.08,-0.08,0.93,1012.68
4.532,-0.52,0.83,-0.34,-1.70,-0.83,-1.00,-0.08,-0.08,0.93,1012.68
4.554,-0.52,0.83,-0.34,-1.70,-0.83,-1.00,-0.08,-0.08,0.93,1012.69
4.568,-0.52,0.83,-0.34,2.82,-0.72,0.03,-0.08,-0.08,0.93,1012.69
4.571,-0.02,0.86,-0.22,2.82,-0.72,0.03,-0.08,-0.08,0.93,1012.69
4.574,-0.02,0.86,-0.22,2.82,-0.72,0.03,-0.16,-0.72,1.06,1012.69
4.626,0.15,0.92,-0.16,2.82,-0.72,0.03,-0.16,-0.72,1.06,1012.69
4.63,0.15,0.92,-0.16,2.82,-0.72,0.03,-0.14,-0.17,0.73,1012.69
4.631,0.15,0.92,-0.16,4.20,-0.26,0.56,-0.14,-0.17,0.73,1012.69
4.633,0.15,0.92,-0.16,4.20,-0.26,0.56,-0.14,-0.17,0.73,1012.69
4.658,0.05,0.93,-0.10,4.20,-0.26,0.56,-0.14,-0.17,0.73,1012.69
4.66,0.05,0.93,-0.10,4.20,-0.26,0.56,-0.09,0.39,0.33,1012.69
4.661,0.05,0.93,-0.10,2.96,-0.12,1.11,-0.09,0.39,0.33,1012.69
4.678,0.05,0.93,-0.10,2.96,-0.12,1.11,-0.09,0.39,0.33,1012.69
4.685,0.01,1.03,-0.11,2.96,-0.12,1.11,-0.09,0.39,0.33,1012.69
4.687,0.01,1.03,-0.11,2.96,-0.12,1.11,0.04,0.34,-0.06,1012.69
4.688,0.01,1.03,-0.11,2.50,0.79,1.09,0.04,0.34,-0.06,1012.69
4.724,-0.10,1.19,-0.34,2.50,0.79,1.09,0.04,0.34,-0.06,1012.69
4.725,-0.10,1.19,-0.34,2.50,0.79,1.09,0.13,0.10,-0.34,1012.69
4.726,-0.10,1.19,-0.34,1.57,2.39,-1.13,0.13,0.10,-0.34,1012.69
4.735,-0.10,1.19,-0.34,1.57,2.39,-1.13,0.13,0.10,-0.34,1012.68
4.763,-0.20,1.28,-0.49,1.57,2.39,-1.13,0.13,0.10,-0.34,1012.68
4.764,-0.20,1.28,-0.49,1.57,2.39,-1.13,0.04,-0.50,-0.42,1012.68
4.765,-0.20,1.28,-0.49,0.73,3.22,-2.59,0.04,-0.50,-0.42,1012.68
4.801,-0.20,1.28,-0.49,0.73,3.22,-2.59,0.04,-0.50,-0.42,1012.67
4.808,-0.20,1.28,-0.49,-4.04,5.70,-0.21,0.04,-0.50,-0.42,1012.67
4.81,-0.71,1.54,-0.24,-4.04,5.70,-0.21,0.04,-0.50,-0.42,1012.67
4.812,-0.71,1.54,-0.24,-4.04,5.70,-0.21,-0.22,-0.20,-0.34,1012.67
4.843,-0.22,1.72,0.21,-4.04,5.70,-0.21,-0.22,-0.20,-0.34,1012.67
4.846,-0.22,1.72,0.21,-4.04,5.70,-0.21,-0.40,-1.08,0.15,1012.67
4.852,-0.22,1.72,0.21,0.75,7.29,3.84,-0.40,-1.08,0.15,1012.67
4.854,-0.22,1.72,0.21,0.75,7.29,3.84,-0.40,-1.08,0.15,1012.66
4.906,1.44,1.52,0.02,0.75,7.29,3.84,-0.40,-1.08,0.15,1012.66
4.907,1.44,1.52,0.02,0.75,7.29,3.84,-0.68,-0.57,-0.04,1012.66
4.908,1.44,1.52,0.02,16.86,5.26,1.64,-0.68,-0.57,-0.04,1012.66
4.913,1.44,1.52,0.02,16.86,5.26,1.64,-0.68,-0.57,-0.04,1012.67
4.947,0.62,1.79,-0.37,16.86,5.26,1.64,-0.68,-0.57,-0.04,1012.67
4.952,0.62,1.79,-0.37,16.86,5.26,1.64,-0.33,2.34,-2.62,1012.67
4.954,0.62,1.79,-0.37,9.45,8.05,-1.98,-0.33,2.34,-2.62,1012.67
4.961,-1.70,1.61,-0.69,9.45,8.05,-1.98,-0.33,2.34,-2.62,1012.67
4.963,-1.70,1.61,-0.69,9.45,8.05,-1.98,0.46,2.58,-5.02,1012.67
4.965,-1.70,1.61,-0.69,-11.48,7.05,-4.42,0.46,2.58,-5.02,1012.67
4.973,-1.70,1.61,-0.69,-11.48,7.05,-4.42,0.46,2.58,-5.02,1012.68
5.016,-0.62,1.35,-0.58,-11.48,7.05,-4.42,0.46,2.58,-5.02,1012.68
5.018,-0.62,1.35,-0.58,-11.48,7.05,-4.42,0.34,-1.32,-4.02,1012.68
5.019,-0.62,1.35,-0.58,0.57,5.34,-3.58,0.34,-1.32,-4.02,1012.68
5.07,-0.62,1.35,-0.58,0.57,5.34,-3.58,0.34,-1.32,-4.02,1012.68
5.072,-0.07,0.94,-0.37,0.57,5.34,-3.58,0.34,-1.32,-4.02,1012.68
5.074,-0.07,0.94,-0.37,0.57,5.34,-3.58,-0.39,-1.27,-3.40,1012.68
5.075,-0.07,0.94,-0.37,6.95,2.22,-1.89,-0.39,-1.27,-3.40,1012.68
5.079,-0.53,0.50,-0.23,6.95,2.22,-1.89,-0.39,-1.27,-3.40,1012.68
5.083,-0.53,0.50,-0.23,6.95,2.22,-1.89,-0.63,0.60,-3.06,1012.68
5.084,-0.53,0.50,-0.23,3.13,-1.11,-0.50,-0.63,0.60,-3.06,1012.68
5.093,-0.53,0.50,-0.23,3.13,-1.11,-0.50,-0.63,0.60,-3.06,1012.69
5.12,-0.51,0.43,-0.41,3.13,-1.11,-0.50,-0.63,0.60,-3.06,1012.69
5.122,-0.51,0.43,-0.41,3.13,-1.11,-0.50,-0.46,1.00,-2.18,1012.69
5.123,-0.51,0.43,-0.41,3.65,-1.06,-1.99,-0.46,1.00,-2.18,1012.69
5.156,-0.51,0.43,-0.41,3.65,-1.06,-1.99,-0.46,1.00,-2.18,1012.67
5.159,-0.17,0.28,-0.34,3.65,-1.06,-1.99,-0.46,1.00,-2.18,1012.67
5.161,-0.17,0.28,-0.34,3.65,-1.06,-1.99,-0.88,0.77,-0.82,1012.67
5.162,-0.17,0.28,-0.34,6.91,-2.30,-1.21,-0.88,0.77,-0.82,1012.67
5.203,-0.28,0.09,-0.14,6.91,-2.30,-1.21,-0.88,0.77,-0.82,1012.67
5.205,-0.28,0.09,-0.14,6.91,-2.30,-1.21,-1.29,1.08,0.63,1012.67
5.206,-0.28,0.09,-0.14,5.56,-4.39,0.78,-1.29,1.08,0.63,1012.67
5.212,-0.28,0.09,-0.14,5.56,-4.39,0.78,-1.29,1.08,0.63,1012.65
5.24,-0.28,0.05,-0.18,5.56,-4.39,0.78,-1.29,1.08,0.63,1012.65
5.243,-0.28,0.05,-0.18,5.56,-4.39,0.78,-1.33,1.35,2.23,1012.65
5.244,-0.28,0.05,-0.18,4.89,-5.55,0.59,-1.33,1.35,2.23,1012.65
5.272,-0.28,0.05,-0.18,4.89,-5.55,0.59,-1.33,1.35,2.23,1012.65
5.278,-0.24,0.01,-0.19,4.89,-5.55,0.59,-1.33,1.35,2.23,1012.65
5.279,-0.24,0.01,-0.19,4.89,-5.55,0.59,-1.40,1.86,3.35,1012.65
5.281,-0.24,0.01,-0.19,4.18,-6.91,0.57,-1.40,1.86,3.35,1012.65
5.322,-0.56,0.04,-0.32,4.18,-6.91,0.57,-1.40,1.86,3.35,1012.65
5.326,-0.56,0.04,-0.32,4.18,-6.91,0.57,-1.52,2.34,3.78,1012.65
5.327,-0.56,0.04,-0.32,-0.39,-7.54,-0.54,-1.52,2.34,3.78,1012.65
5.332,-0.56,0.04,-0.32,-0.39,-7.54,-0.54,-1.52,2.34,3.78,1012.64
5.362,-0.69,-0.09,-0.29,-0.39,-7.54,-0.54,-1.52,2.34,3.78,1012.64
5.365,-0.69,-0.09,-0.29,-0.39,-7.54,-0.54,-1.73,2.07,3.44,1012.64
5.366,-0.69,-0.09,-0.29,-2.88,-9.35,-0.49,-1.73,2.07,3.44,1012.64
5.392,-0.69,-0.09,-0.29,-2.88,-9.35,-0.49,-1.73,2.07,3.44,1012.62
5.396,-1.14,-0.04,-0.67,-2.88,-9.35,-0.49,-1.73,2.07,3.44,1012.62
5.397,-1.14,-0.04,-0.67,-2.88,-9.35,-0.49,-1.34,2.39,1.97,1012.62
5.398,-1.14,-0.04,-0.67,-8.07,-9.10,-4.26,-1.34,2.39,1.97,1012.62
5.438,-1.42,-0.31,-0.61,-8.07,-9.10,-4.26,-1.34,2.39,1.97,1012.62
5.439,-1.42,-0.31,-0.61,-10.85,-11.70,-3.70,-1.34,2.39,1.97,1012.62
5.44,-1.42,-0.31,-0.61,-10.85,-11.70,-3.70,-0.82,1.67,0.23,1012.62
5.456,-1.42,-0.31,-0.61,-10.85,-11.70,-3.70,-0.82,1.67,0.23,1012.60
5.475,-1.13,3.49,-1.33,-10.85,-11.70,-3.70,-0.82,1.67,0.23,1012.60
5.479,-1.13,3.49,-1.33,-10.85,-11.70,-3.70,0.83,-0.03,-1.43,1012.60
5.481,-1.13,3.49,-1.33,-7.41,25.36,-10.33,0.83,-0.03,-1.43,1012.60
5.524,-1.13,3.49,-1.33,-7.41,25.36,-10.33,0.83,-0.03,-1.43,1012.60
5.526,-0.22,0.77,0.18,-7.41,25.36,-10.33,0.83,-0.03,-1.43,1012.60
5.526,-0.22,0.77,0.18,-7.41,25.36,-10.33,-0.45,-2.96,-1.52,1012.60
5.527,-0.22,0.77,0.18,2.26,-1.02,3.72,-0.45,-2.96,-1.52,1012.60
5.563,-0.53,-0.45,0.37,2.26,-1.02,3.72,-0.45,-2.96,-1.52,1012.60
5.566,-0.53,-0.45,0.37,2.26,-1.02,3.72,-0.25,2.23,-0.30,1012.60
5.568,-0.53,-0.45,0.37,-0.81,-12.73,5.80,-0.25,2.23,-0.30,1012.60
5.572,-0.53,-0.45,0.37,-0.81,-12.73,5.80,-0.25,2.23,-0.30,1012.61
5.594,-1.77,1.99,-0.82,-0.81,-12.73,5.80,-0.25,2.23,-0.30,1012.61
5.596,-1.77,1.99,-0.82,-0.81,-12.73,5.80,0.28,1.63,-1.28,1012.61
5.597,-1.77,1.99,-0.82,-12.55,11.24,-5.31,0.28,1.63,-1.28,1012.61
5.631,-0.48,0.40,-0.07,-12.55,11.24,-5.31,0.28,1.63,-1.28,1012.61
5.634,-0.48,0.40,-0.07,-12.55,11.24,-5.31,-0.32,-0.19,0.92,1012.61
5.635,-0.48,0.40,-0.07,-0.13,-4.48,1.86,-0.32,-0.19,0.92,1012.61
5.636,-0.48,0.40,-0.07,-0.13,-4.48,1.86,-0.32,-0.19,0.92,1012.61
5.674,-0.48,0.40,-0.07,-1.98,2.11,-0.22,-0.32,-0.19,0.92,1012.61
5.675,-0.66,1.09,-0.28,-1.98,2.11,-0.22,-0.32,-0.19,0.92,1012.61
5.676,-0.66,1.09,-0.28,-1.98,2.11,-0.22,0.11,-0.44,0.53,1012.61
5.692,-0.66,1.09,-0.28,-1.98,2.11,-0.22,0.11,-0.44,0.53,1012.61
5.724,-0.42,0.86,-0.22,-1.98,2.11,-0.22,0.11,-0.44,0.53,1012.61
5.726,-0.42,0.86,-0.22,-1.98,2.11,-0.22,-0.16,0.27,0.87,1012.61
5.726,-0.42,0.86,-0.22,0.05,-0.28,0.34,-0.16,0.27,0.87,1012.61
5.765,-0.54,0.89,-0.26,0.05,-0.28,0.34,-0.16,0.27,0.87,1012.61
5.769,-0.54,0.89,-0.26,0.05,-0.28,0.34,-0.11,-0.14,0.84,1012.61
5.771,-0.54,0.89,-0.26,-1.42,-0.07,-0.15,-0.11,-0.14,0.84,1012.61
5.773,-0.54,0.89,-0.26,-1.42,-0.07,-0.15,-0.11,-0.14,0.84,1012.61
5.792,0.05,0.88,-0.12,-1.42,-0.07,-0.15,-0.11,-0.14,0.84,1012.61
5.795,0.05,0.88,-0.12,-1.42,-0.07,-0.15,-0.11,-0.58,0.96,1012.61
5.797,0.05,0.88,-0.12,4.01,-0.37,1.07,-0.11,-0.58,0.96,1012.61
5.823,0.05,0.88,-0.12,4.01,-0.37,1.07,-0.11,-0.58,0.96,1012.62
5.831,0.05,0.88,-0.12,2.60,0.24,0.87,-0.11,-0.58,0.96,1012.62
5.857,-0.07,0.95,-0.14,2.60,0.24,0.87,-0.11,-0.58,0.96,1012.62
5.859,-0.07,0.95,-0.14,2.60,0.24,0.87,-0.04,0.25,0.45,1012.62
5.871,-0.22,0.88,-0.17,2.60,0.24,0.87,-0.04,0.25,0.45,1012.62
5.872,-0.22,0.88,-0.17,2.60,0.24,0.87,0.02,0.26,0.07,1012.62
5.873,-0.22,0.88,-0.17,2.60,0.24,0.87,0.02,0.26,0.07,1012.62
5.874,-0.22,0.88,-0.17,1.06,-0.46,0.60,0.02,0.26,0.07,1012.62
5.924,-0.11,0.95,-0.25,1.06,-0.46,0.60,0.02,0.26,0.07,1012.62
5.926,-0.11,0.95,-0.25,1.06,-0.46,0.60,0.06,0.06,-0.17,1012.62
5.927,-0.11,0.95,-0.25,2.19,0.31,-0.08,0.06,0.06,-0.17,1012.62
5.931,-0.11,0.95,-0.25,2.19,0.31,-0.08,0.06,0.06,-0.17,1012.64
5.949,-0.29,0.88,-0.15,2.19,0.31,-0.08,0.06,0.06,-0.17,1012.64
5.95,-0.29,0.88,-0.15,2.19,0.31,-0.08,-0.00,0.35,-0.45,1012.64
5.951,-0.29,0.88,-0.15,0.56,-0.30,0.87,-0.00,0.35,-0.45,1012.64
5.99,-0.29,1.06,-0.31,0.56,-0.30,0.87,-0.00,0.35,-0.45,1012.64
5.995,-0.29,1.06,-0.31,0.56,-0.30,0.87,0.08,0.07,-0.58,1012.64
5.997,-0.29,1.06,-0.31,0.56,-0.30,0.87,0.08,0.07,-0.58,1012.66
5.999,-0.29,1.06,-0.31,0.66,1.53,-0.63,0.08,0.07,-0.58,1012.66
6.034,-0.35,1.13,-0.48,0.66,1.53,-0.63,0.08,0.07,-0.58,1012.66
6.036,-0.35,1.13,-0.48,0.66,1.53,-0.63,-0.09,0.31,-0.53,1012.66
6.037,-0.35,1.13,-0.48,0.31,2.18,-2.24,-0.09,0.31,-0.53,1012.66
6.051,-0.35,1.13,-0.48,0.31,2.18,-2.24,-0.09,0.31,-0.53,1012.67
6.071,-0.35,1.13,-0.48,-2.69,4.30,0.29,-0.09,0.31,-0.53,1012.67
6.076,-0.67,1.35,-0.21,-2.69,4.30,0.29,-0.09,0.31,-0.53,1012.67
6.076,-0.67,1.35,-0.21,-2.69,4.30,0.29,-0.26,0.08,-0.44,1012.67
6.119,-0.21,1.61,0.12,-2.69,4.30,0.29,-0.26,0.08,-0.44,1012.67
6.127,-0.21,1.61,0.12,-2.69,4.30,0.29,-0.39,-0.65,-0.24,1012.67
6.128,-0.21,1.61,0.12,-2.69,4.30,0.29,-0.39,-0.65,-0.24,1012.65
6.129,-0.21,1.61,0.12,1.94,6.80,3.29,-0.39,-0.65,-0.24,1012.65
6.152,0.45,1.67,0.26,1.94,6.80,3.29,-0.39,-0.65,-0.24,1012.65
6.153,0.45,1.67,0.26,1.94,6.80,3.29,-0.59,-0.38,-0.52,1012.65
6.154,0.45,1.67,0.26,8.43,7.32,4.29,-0.59,-0.38,-0.52,1012.65
6.17,0.45,1.67,0.26,8.43,7.32,4.29,-0.59,-0.38,-0.52,1012.63
6.187,0.40,1.59,0.07,8.43,7.32,4.29,-0.59,-0.38,-0.52,1012.63
6.192,0.40,1.59,0.07,8.43,7.32,4.29,-0.80,-0.34,-1.35,1012.63
6.195,0.40,1.59,0.07,8.34,6.60,2.06,-0.80,-0.34,-1.35,1012.63
6.234,0.35,1.41,-0.29,8.34,6.60,2.06,-0.80,-0.34,-1.35,1012.63
6.24,0.35,1.41,-0.29,8.34,6.60,2.06,-0.51,0.10,-2.01,1012.63
6.242,0.35,1.41,-0.29,8.45,5.08,-1.57,-0.51,0.10,-2.01,1012.63
6.244,0.35,1.41,-0.29,8.45,5.08,-1.57,-0.51,0.10,-2.01,1012.62
6.278,-0.04,1.39,-0.92,8.45,5.08,-1.57,-0.51,0.10,-2.01,1012.62
6.28,-0.04,1.39,-0.92,8.45,5.08,-1.57,-0.73,3.99,-2.67,1012.62
6.282,-0.04,1.39,-0.92,5.14,5.33,-7.04,-0.73,3.99,-2.67,1012.62
6.291,-0.04,1.39,-0.92,5.14,5.33,-7.04,-0.73,3.99,-2.67,1012.63
6.32,-0.04,1.39,-0.92,-8.13,-0.46,-6.03,-0.73,3.99,-2.67,1012.63
6.324,-1.47,0.75,-0.86,-8.13,-0.46,-6.03,-0.73,3.99,-2.67,1012.63
6.324,-1.47,0.75,-0.86,-8.13,-0.46,-6.03,-1.58,3.76,-2.90,1012.63
6.352,-0.35,0.94,-0.79,-8.13,-0.46,-6.03,-1.58,3.76,-2.90,1012.63
6.356,-0.35,0.94,-0.79,3.28,1.59,-5.92,-1.58,3.76,-2.90,1012.63
6.357,-0.35,0.94,-0.79,3.28,1.59,-5.92,-1.77,-0.75,-1.28,1012.63
6.358,-0.35,0.94,-0.79,3.28,1.59,-5.92,-1.77,-0.75,-1.28,1012.63
6.384,-0.16,0.74,-0.77,3.28,1.59,-5.92,-1.77,-0.75,-1.28,1012.63
6.387,-0.16,0.74,-0.77,3.28,1.59,-5.92,-2.62,0.19,-1.01,1012.63
6.388,-0.16,0.74,-0.77,5.34,-0.23,-6.41,-2.62,0.19,-1.01,1012.63
6.41,-0.16,0.74,-0.77,5.34,-0.23,-6.41,-2.62,0.19,-1.01,1012.64
6.43,-0.16,0.74,-0.77,3.13,-1.33,-6.34,-2.62,0.19,-1.01,1012.64
6.431,-0.39,0.61,-0.76,3.13,-1.33,-6.34,-2.62,0.19,-1.01,1012.64
6.432,-0.39,0.61,-0.76,3.13,-1.33,-6.34,-3.11,2.83,-0.89,1012.64
6.475,-0.50,0.76,-1.13,3.13,-1.33,-6.34,-3.11,2.83,-0.89,1012.64
6.478,-0.50,0.76,-1.13,3.13,-1.33,-6.34,-2.96,3.69,-0.75,1012.64
6.479,-0.50,0.76,-1.13,2.11,0.18,-9.58,-2.96,3.69,-0.75,1012.64
6.481,-0.50,0.76,-1.13,2.11,0.18,-9.58,-2.96,3.69,-0.75,1012.63
6.515,-0.55,0.70,-1.28,2.11,0.18,-9.58,-2.96,3.69,-0.75,1012.63
6.518,-0.55,0.70,-1.28,2.11,0.18,-9.58,-2.88,3.46,-0.40,1012.63
6.52,-0.55,0.70,-1.28,1.49,-0.45,-10.73,-2.88,3.46,-0.40,1012.63
6.552,-0.55,0.70,-1.28,1.49,-0.45,-10.73,-2.88,3.46,-0.40,1012.63
6.553,-0.61,0.62,-1.25,1.49,-0.45,-10.73,-2.88,3.46,-0.40,1012.63
6.554,-0.61,0.62,-1.25,1.49,-0.45,-10.73,-2.71,2.72,0.09,1012.63
6.555,-0.61,0.62,-1.25,0.64,-1.46,-10.41,-2.71,2.72,0.09,1012.63
6.58,-0.61,0.56,-1.08,0.64,-1.46,-10.41,-2.71,2.72,0.09,1012.63
6.582,-0.61,0.56,-1.08,0.64,-1.46,-10.41,-2.52,2.29,0.83,1012.63
6.583,-0.61,0.56,-1.08,0.26,-2.38,-8.74,-2.52,2.29,0.83,1012.63
6.589,-0.61,0.56,-1.08,0.26,-2.38,-8.74,-2.52,2.29,0.83,1012.62
6.639,-0.61,0.56,-1.08,0.14,-4.13,-6.23,-2.52,2.29,0.83,1012.62
6.643,-0.55,0.43,-0.82,0.14,-4.13,-6.23,-2.52,2.29,0.83,1012.62
6.644,-0.55,0.43,-0.82,0.14,-4.13,-6.23,-2.24,2.43,1.67,1012.62
6.649,-0.55,0.43,-0.82,0.14,-4.13,-6.23,-2.24,2.43,1.67,1012.61
6.659,-0.48,0.37,-0.66,0.14,-4.13,-6.23,-2.24,2.43,1.67,1012.61
6.661,-0.48,0.37,-0.66,0.14,-4.13,-6.23,-1.95,3.20,2.42,1012.61
6.661,-0.48,0.37,-0.66,-0.20,-5.21,-4.62,-1.95,3.20,2.42,1012.61
6.7,-0.57,0.33,-0.76,-0.20,-5.21,-4.62,-1.95,3.20,2.42,1012.61
6.701,-0.57,0.33,-0.76,-2.50,-6.10,-5.55,-1.95,3.20,2.42,1012.61
6.701,-0.57,0.33,-0.76,-2.50,-6.10,-5.55,-1.74,4.12,3.00,1012.61
6.717,-0.57,0.33,-0.76,-2.50,-6.10,-5.55,-1.74,4.12,3.00,1012.61
6.749,-1.02,0.40,-0.71,-2.50,-6.10,-5.55,-1.74,4.12,3.00,1012.61
6.752,-1.02,0.40,-0.71,-2.50,-6.10,-5.55,-1.63,3.28,3.42,1012.61
6.755,-1.02,0.40,-0.71,-8.22,-5.76,-5.22,-1.63,3.28,3.42,1012.61
6.767,-1.02,0.40,-0.71,-8.22,-5.76,-5.22,-1.63,3.28,3.42,1012.59
6.779,-0.77,0.57,-0.28,-8.22,-5.76,-5.22,-1.63,3.28,3.42,1012.59
6.78,-0.77,0.57,-0.28,-8.22,-5.76,-5.22,-1.63,1.01,3.61,1012.59
6.781,-0.77,0.57,-0.28,-7.13,-4.30,-1.56,-1.63,1.01,3.61,1012.59
6.823,-0.39,0.77,-0.32,-7.13,-4.30,-1.56,-1.63,1.01,3.61,1012.59
6.825,-0.39,0.77,-0.32,-7.13,-4.30,-1.56,-1.37,1.52,2.63,1012.59
6.826,-0.39,0.77,-0.32,-4.47,-2.24,-2.53,-1.37,1.52,2.63,1012.59
6.829,-0.39,0.77,-0.32,-4.47,-2.24,-2.53,-1.37,1.52,2.63,1012.57
6.864,-0.77,0.59,-0.48,-4.47,-2.24,-2.53,-1.37,1.52,2.63,1012.57
6.867,-0.77,0.59,-0.48,-4.47,-2.24,-2.53,-0.95,3.76,0.77,1012.57
6.869,-0.77,0.59,-0.48,-8.40,-4.01,-4.44,-0.95,3.76,0.77,1012.57
6.89,-0.77,0.59,-0.48,-8.40,-4.01,-4.44,-0.95,3.76,0.77,1012.56
6.897,-1.54,1.18,-0.99,-8.40,-4.01,-4.44,-0.95,3.76,0.77,1012.56
6.899,-1.54,1.18,-0.99,-8.40,-4.01,-4.44,0.33,3.23,-1.29,1012.56
6.9,-1.54,1.18,-0.99,-15.18,1.77,-9.25,0.33,3.23,-1.29,1012.56
6.938,-0.98,1.06,0.23,-15.18,1.77,-9.25,0.33,3.23,-1.29,1012.56
6.944,-0.98,1.06,0.23,-15.18,1.77,-9.25,0.44,-0.66,-2.60,1012.56
6.945,-0.98,1.06,0.23,-8.51,0.59,2.75,0.44,-0.66,-2.60,1012.56
6.949,-0.98,1.06,0.23,-8.51,0.59,2.75,0.44,-0.66,-2.60,1012.57
6.979,0.88,0.87,-0.12,-8.51,0.59,2.75,0.44,-0.66,-2.60,1012.57
6.983,0.88,0.87,-0.12,-8.51,0.59,2.75,0.23,-2.36,0.36,1012.57
6.987,0.88,0.87,-0.12,9.46,-1.20,-0.64,0.23,-2.36,0.36,1012.57
7.012,0.88,0.87,-0.12,9.46,-1.20,-0.64,0.23,-2.36,0.36,1012.57
7.016,-1.34,0.77,-0.10,9.46,-1.20,-0.64,0.23,-2.36,0.36,1012.57
7.017,-1.34,0.77,-0.10,9.46,-1.20,-0.64,0.02,3.28,-1.61,1012.57
7.018,-1.34,0.77,-0.10,-11.54,-2.08,-0.30,0.02,3.28,-1.61,1012.57
7.055,-0.87,0.95,-0.19,-11.54,-2.08,-0.30,0.02,3.28,-1.61,1012.57
7.056,-0.87,0.95,-0.19,-11.54,-2.08,-0.30,0.06,1.91,-0.23,1012.57
7.057,-0.87,0.95,-0.19,-6.77,-0.32,-1.04,0.06,1.91,-0.23,1012.57
7.07,-0.87,0.95,-0.19,-6.77,-0.32,-1.04,0.06,1.91,-0.23,1012.58
7.096,-0.17,1.23,-0.20,-6.77,-0.32,-1.04,0.06,1.91,-0.23,1012.58
7.098,-0.17,1.23,-0.20,-6.77,-0.32,-1.04,0.11,-0.47,0.37,1012.58
7.099,-0.17,1.23,-0.20,-0.08,2.39,-1.06,0.11,-0.47,0.37,1012.58
7.146,-0.17,1.23,-0.20,-0.08,2.39,-1.06,0.11,-0.47,0.37,1012.57
7.147,-0.20,0.83,-0.01,-0.08,2.39,-1.06,0.11,-0.47,0.37,1012.57
7.148,-0.20,0.83,-0.01,-0.08,2.39,-1.06,-0.04,0.11,0.38,1012.57
7.148,-0.20,0.83,-0.01,-0.52,-1.58,0.72,-0.04,0.11,0.38,1012.57
7.173,-0.37,1.04,-0.18,-0.52,-1.58,0.72,-0.04,0.11,0.38,1012.57
7.174,-0.37,1.04,-0.18,-0.52,-1.58,0.72,0.03,0.97,0.34,1012.57
7.175,-0.37,1.04,-0.18,-2.32,0.45,-0.85,0.03,0.97,0.34,1012.57
7.188,-0.37,1.04,-0.18,-2.32,0.45,-0.85,0.03,0.97,0.34,1012.59
7.213,-0.37,0.92,-0.14,-2.32,0.45,-0.85,0.03,0.97,0.34,1012.59
7.214,-0.37,0.92,-0.14,-2.32,0.45,-0.85,-0.05,0.23,0.52,1012.59
7.214,-0.37,0.92,-0.14,-2.49,-0.71,-0.47,-0.05,0.23,0.52,1012.59
7.248,-0.37,0.92,-0.14,-2.49,-0.71,-0.47,-0.05,0.23,0.52,1012.59
7.253,0.00,1.00,-0.12,-2.49,-0.71,-0.47,-0.05,0.23,0.52,1012.59
7.254,0.00,1.00,-0.12,-2.49,-0.71,-0.47,-0.04,-0.11,0.62,1012.59
7.255,0.00,1.00,-0.12,0.94,0.07,-0.26,-0.04,-0.11,0.62,1012.59
7.291,-0.12,0.97,-0.13,0.94,0.07,-0.26,-0.04,-0.11,0.62,1012.59
7.293,-0.12,0.97,-0.13,0.94,0.07,-0.26,-0.09,0.44,0.47,1012.59
7.293,-0.12,0.97,-0.13,-0.45,-0.32,-0.39,-0.09,0.44,0.47,1012.59
7.307,-0.12,0.97,-0.13,-0.45,-0.32,-0.39,-0.09,0.44,0.47,1012.58
7.333,0.06,1.06,-0.13,-0.45,-0.32,-0.39,-0.09,0.44,0.47,1012.58
7.334,0.06,1.06,-0.13,-0.45,-0.32,-0.39,-0.06,-0.03,0.40,1012.58
7.334,0.06,1.06,-0.13,1.15,0.62,-0.40,-0.06,-0.03,0.40,1012.58
7.367,0.06,1.06,-0.13,1.15,0.62,-0.40,-0.06,-0.03,0.40,1012.57
7.371,0.17,0.99,-0.08,1.15,0.62,-0.40,-0.06,-0.03,0.40,1012.57
7.372,0.17,0.99,-0.08,1.15,0.62,-0.40,-0.06,-0.08,0.17,1012.57
7.373,0.17,0.99,-0.08,2.07,-0.09,0.08,-0.06,-0.08,0.17,1012.57
7.411,-0.03,1.01,-0.13,2.07,-0.09,0.08,-0.06,-0.08,0.17,1012.57
7.412,-0.03,1.01,-0.13,2.07,-0.09,0.08,-0.03,0.10,-0.18,1012.57
7.412,-0.03,1.01,-0.13,0.24,0.14,-0.38,-0.03,0.10,-0.18,1012.57
7.428,-0.03,1.01,-0.13,0.24,0.14,-0.38,-0.03,0.10,-0.18,1012.58
7.449,0.06,1.01,-0.11,0.24,0.14,-0.38,-0.03,0.10,-0.18,1012.58
7.45,0.06,1.01,-0.11,0.24,0.14,-0.38,-0.02,-0.28,-0.36,1012.58
7.45,0.06,1.01,-0.11,1.26,0.13,-0.28,-0.02,-0.28,-0.36,1012.58
7.488,0.06,1.01,-0.11,1.26,0.13,-0.28,-0.02,-0.28,-0.36,1012.58
7.489,-0.00,1.02,-0.10,1.26,0.13,-0.28,-0.02,-0.28,-0.36,1012.58
7.49,-0.00,1.02,-0.10,1.26,0.13,-0.28,-0.01,-0.25,-0.68,1012.58
7.49,-0.00,1.02,-0.10,0.85,0.20,-0.17,-0.01,-0.25,-0.68,1012.58
7.531,-0.39,1.05,-0.33,0.85,0.20,-0.17,-0.01,-0.25,-0.68,1012.58
7.534,-0.39,1.05,-0.33,0.85,0.20,-0.17,-0.06,-0.10,-0.91,1012.58
7.536,-0.39,1.05,-0.33,-2.50,0.53,-2.43,-0.06,-0.10,-0.91,1012.58
7.55,-0.39,1.05,-0.33,-2.50,0.53,-2.43,-0.06,-0.10,-0.91,1012.57
7.568,-0.30,0.84,-0.16,-2.50,0.53,-2.43,-0.06,-0.10,-0.91,1012.57
7.569,-0.30,0.84,-0.16,-2.50,0.53,-2.43,-0.44,0.06,-0.58,1012.57
7.57,-0.30,0.84,-0.16,-1.43,-1.50,-0.82,-0.44,0.06,-0.58,1012.57
7.624,-0.44,0.94,0.04,-1.43,-1.50,-0.82,-0.44,0.06,-0.58,1012.57
7.625,-0.44,0.94,0.04,-1.43,-1.50,-0.82,-0.46,0.24,-0.47,1012.57
7.626,-0.44,0.94,0.04,-2.52,-0.51,0.92,-0.46,0.24,-0.47,1012.57
7.626,-0.44,0.94,0.04,-2.52,-0.51,0.92,-0.46,0.24,-0.47,1012.57
7.655,-0.44,0.94,-0.03,-2.52,-0.51,0.92,-0.46,0.24,-0.47,1012.57
7.657,-0.44,0.94,-0.03,-2.52,-0.51,0.92,-0.32,-0.30,-0.33,1012.57
7.658,-0.44,0.94,-0.03,-2.39,-0.45,0.12,-0.32,-0.30,-0.33,1012.57
7.668,-0.44,0.94,-0.03,-2.39,-0.45,0.12,-0.32,-0.30,-0.33,1012.58
7.687,-0.19,1.06,-0.10,-2.39,-0.45,0.12,-0.32,-0.30,-0.33,1012.58
7.689,-0.19,1.06,-0.10,-2.39,-0.45,0.12,-0.32,-0.57,-0.17,1012.58
7.69,-0.19,1.06,-0.10,0.11,0.73,-0.78,-0.32,-0.57,-0.17,1012.58
7.744,-0.20,0.96,-0.08,0.11,0.73,-0.78,-0.32,-0.57,-0.17,1012.58
7.746,-0.20,0.96,-0.08,0.11,0.73,-0.78,-0.46,-0.32,-0.19,1012.58
7.746,-0.20,0.96,-0.08,0.11,0.73,-0.78,-0.46,-0.32,-0.19,1012.57
7.747,-0.20,0.96,-0.08,0.09,-0.24,-0.70,-0.46,-0.32,-0.19,1012.57
7.771,-0.34,0.95,0.04,0.09,-0.24,-0.70,-0.46,-0.32,-0.19,1012.57
7.773,-0.34,0.95,0.04,0.09,-0.24,-0.70,-0.49,-0.16,-0.22,1012.57
7.774,-0.34,0.95,0.04,-1.19,-0.29,0.25,-0.49,-0.16,-0.22,1012.57
7.793,-0.34,0.95,0.04,-1.19,-0.29,0.25,-0.49,-0.16,-0.22,1012.57
7.806,-0.29,0.95,0.17,-1.19,-0.29,0.25,-0.49,-0.16,-0.22,1012.57
7.808,-0.29,0.95,0.17,-1.19,-0.29,0.25,-0.42,-0.20,-0.17,1012.57
7.808,-0.29,0.95,0.17,-0.60,-0.32,1.34,-0.42,-0.20,-0.17,1012.57
7.845,-0.29,0.99,0.22,-0.60,-0.32,1.34,-0.42,-0.20,-0.17,1012.57
7.848,-0.29,0.99,0.22,-0.60,-0.32,1.34,-0.16,-0.40,-0.17,1012.57
7.85,-0.29,0.99,0.22,-0.50,0.09,1.71,-0.16,-0.40,-0.17,1012.57
7.852,-0.29,0.99,0.22,-0.50,0.09,1.71,-0.16,-0.40,-0.17,1012.57
7.885,-0.32,0.94,0.14,-0.50,0.09,1.71,-0.16,-0.40,-0.17,1012.57
7.887,-0.32,0.94,0.14,-0.50,0.09,1.71,0.06,-0.37,-0.15,1012.57
7.888,-0.32,0.94,0.14,-0.75,-0.33,0.88,0.06,-0.37,-0.15,1012.57
7.908,-0.32,0.94,0.14,-0.75,-0.33,0.88,0.06,-0.37,-0.15,1012.58
7.944,-0.32,0.94,0.14,-0.57,-0.27,-0.14,0.06,-0.37,-0.15,1012.58
7.945,-0.31,0.95,0.04,-0.57,-0.27,-0.14,0.06,-0.37,-0.15,1012.58
7.946,-0.31,0.95,0.04,-0.57,-0.27,-0.14,0.10,-0.29,-0.16,1012.58
7.983,-0.32,0.98,-0.03,-0.57,-0.27,-0.14,0.10,-0.29,-0.16,1012.58
7.986,-0.32,0.98,-0.03,-0.57,-0.27,-0.14,0.09,-0.30,-0.12,1012.58
7.987,-0.32,0.98,-0.03,-0.57,-0.27,-0.14,0.09,-0.30,-0.12,1012.58
7.988,-0.32,0.98,-0.03,-0.67,0.09,-0.75,0.09,-0.30,-0.12,1012.58
8.017,-0.29,0.95,0.04,-0.67,0.09,-0.75,0.09,-0.30,-0.12,1012.58
8.02,-0.29,0.95,0.04,-0.67,0.09,-0.75,0.05,-0.33,-0.10,1012.58
8.021,-0.29,0.95,0.04,-0.36,-0.25,-0.09,0.05,-0.33,-0.10,1012.58
8.05,-0.29,0.95,0.04,-0.36,-0.25,-0.09,0.05,-0.33,-0.10,1012.57
8.051,-0.36,0.92,0.08,-0.36,-0.25,-0.09,0.05,-0.33,-0.10,1012.57
8.052,-0.36,0.92,0.08,-0.36,-0.25,-0.09,0.01,-0.08,-0.14,1012.57
8.053,-0.36,0.92,0.08,-0.92,-0.47,0.32,0.01,-0.08,-0.14,1012.57
8.082,-0.38,0.96,0.07,-0.92,-0.47,0.32,0.01,-0.08,-0.14,1012.57
8.086,-0.38,0.96,0.07,-0.92,-0.47,0.32,0.02,0.04,-0.09,1012.57
8.088,-0.38,0.96,0.07,-0.92,-0.47,0.32,0.02,0.04,-0.09,1012.57
8.09,-0.38,0.96,0.07,-1.11,-0.08,0.17,0.02,0.04,-0.09,1012.57
8.146,-0.38,0.96,0.07,-1.01,-0.22,0.25,0.02,0.04,-0.09,1012.57
8.149,-0.37,0.94,0.08,-1.01,-0.22,0.25,0.02,0.04,-0.09,1012.57
8.15,-0.37,0.94,0.08,-1.01,-0.22,0.25,0.06,-0.08,-0.01,1012.57
8.151,-0.37,0.94,0.08,-1.01,-0.22,0.25,0.06,-0.08,-0.01,1012.58
8.194,-0.30,0.95,0.07,-1.01,-0.22,0.25,0.06,-0.08,-0.01,1012.58
8.199,-0.30,0.95,0.07,-1.01,-0.22,0.25,0.09,-0.15,0.03,1012.58
8.202,-0.30,0.95,0.07,-0.31,-0.17,0.20,0.09,-0.15,0.03,1012.58
8.204,-0.29,0.97,0.01,-0.31,-0.17,0.20,0.09,-0.15,0.03,1012.58
8.206,-0.29,0.97,0.01,-0.31,-0.17,0.20,0.10,-0.05,0.00,1012.58
8.207,-0.29,0.97,0.01,-0.19,0.02,-0.34,0.10,-0.05,0.00,1012.58
8.208,-0.29,0.97,0.01,-0.19,0.02,-0.34,0.10,-0.05,0.00,1012.58
8.24,-0.31,0.96,0.00,-0.19,0.02,-0.34,0.10,-0.05,0.00,1012.58
8.242,-0.31,0.96,0.00,-0.19,0.02,-0.34,0.06,-0.02,-0.02,1012.58
8.243,-0.31,0.96,0.00,-0.35,-0.04,-0.40,0.06,-0.02,-0.02,1012.58
8.266,-0.31,0.96,0.00,-0.35,-0.04,-0.40,0.06,-0.02,-0.02,1012.58
8.28,-0.33,0.96,0.03,-0.35,-0.04,-0.40,0.06,-0.02,-0.02,1012.58
8.281,-0.33,0.96,0.03,-0.35,-0.04,-0.40,0.03,0.03,-0.03,1012.58
8.281,-0.33,0.96,0.03,-0.51,-0.10,-0.08,0.03,0.03,-0.03,1012.58
8.32,-0.38,0.94,0.05,-0.51,-0.10,-0.08,0.03,0.03,-0.03,1012.58
8.324,-0.38,0.94,0.05,-0.51,-0.10,-0.08,0.02,0.09,-0.02,1012.58
8.327,-0.38,0.94,0.05,-0.98,-0.28,0.11,0.02,0.09,-0.02,1012.58
8.329,-0.38,0.94,0.05,-0.98,-0.28,0.11,0.02,0.09,-0.02,1012.57
8.359,-0.33,0.97,0.03,-0.98,-0.28,0.11,0.02,0.09,-0.02,1012.57
8.36,-0.33,0.97,0.03,-0.98,-0.28,0.11,0.03,0.07,0.03,1012.57
8.361,-0.33,0.97,0.03,-0.49,-0.02,-0.10,0.03,0.07,0.03,1012.57
8.393,-0.33,0.97,0.03,-0.49,-0.02,-0.10,0.03,0.07,0.03,1012.57
8.399,-0.33,0.97,0.02,-0.49,-0.02,-0.10,0.03,0.07,0.03,1012.57
8.4,-0.33,0.97,0.02,-0.49,-0.02,-0.10,0.03,0.08,0.04,1012.57
8.401,-0.33,0.97,0.02,-0.53,0.02,-0.12,0.03,0.08,0.04,1012.57
8.44,-0.31,0.96,0.02,-0.53,0.02,-0.12,0.03,0.08,0.04,1012.57
8.441,-0.31,0.96,0.02,-0.53,0.02,-0.12,0.02,0.05,0.05,1012.57
8.442,-0.31,0.96,0.02,-0.33,-0.06,-0.16,0.02,0.05,0.05,1012.57
8.445,-0.31,0.96,0.02,-0.33,-0.06,-0.16,0.02,0.05,0.05,1012.57
8.476,-0.32,0.96,0.01,-0.33,-0.06,-0.16,0.02,0.05,0.05,1012.57
8.477,-0.32,0.96,0.01,-0.33,-0.06,-0.16,0.00,0.08,0.04,1012.57
8.478,-0.32,0.96,0.01,-0.46,-0.05,-0.20,0.00,0.08,0.04,1012.57
8.505,-0.32,0.96,0.01,-0.46,-0.05,-0.20,0.00,0.08,0.04,1012.57
8.516,-0.31,0.96,0.03,-0.46,-0.05,-0.20,0.00,0.08,0.04,1012.57
8.517,-0.31,0.96,0.03,-0.46,-0.05,-0.20,-0.00,0.04,0.04,1012.57
8.518,-0.31,0.96,0.03,-0.32,-0.08,-0.05,-0.00,0.04,0.04,1012.57
8.569,-0.30,0.96,0.02,-0.32,-0.08,-0.05,-0.00,0.04,0.04,1012.57
8.57,-0.30,0.96,0.02,-0.32,-0.08,-0.05,-0.01,0.07,0.02,1012.57
8.571,-0.30,0.96,0.02,-0.19,-0.09,-0.10,-0.01,0.07,0.02,1012.57
8.572,-0.30,0.96,0.02,-0.19,-0.09,-0.10,-0.01,0.07,0.02,1012.57
