time,gFx,gFy,gFz,ax,ay,az,wx,wy,wz,P
0.003,-0.03,0.99,-0.11,-0.04,-0.03,0.18,0.02,-0.07,-0.01,1012.87
0.004,-0.03,0.99,-0.11,-0.04,-0.03,0.18,0.03,-0.11,0.00,1012.87
0.005,-0.03,0.99,-0.11,-0.04,-0.03,0.18,0.03,-0.11,0.00,1012.87
0.005,-0.03,0.99,-0.11,-0.04,-0.03,0.18,0.03,-0.11,0.00,1012.88
0.005,-0.04,0.99,-0.06,-0.04,-0.03,0.18,0.03,-0.11,0.00,1012.88
0.023,-0.06,0.98,-0.05,-0.04,-0.03,0.18,0.03,-0.11,0.00,1012.88
0.024,-0.06,0.98,-0.05,-0.04,-0.03,0.18,-0.04,0.01,-0.03,1012.88
0.025,-0.06,0.98,-0.05,0.21,-0.05,-0.16,-0.04,0.01,-0.03,1012.88
0.042,-0.15,1.03,-0.08,0.21,-0.05,-0.16,-0.04,0.01,-0.03,1012.88
0.052,-0.15,1.03,-0.08,0.21,-0.05,-0.16,-0.04,0.01,-0.03,1012.87
0.062,-0.08,0.99,-0.07,0.21,-0.05,-0.16,-0.04,0.01,-0.03,1012.87
0.063,-0.08,0.99,-0.07,0.21,-0.05,-0.16,-0.02,0.04,-0.11,1012.87
0.063,-0.08,0.99,-0.07,-0.13,-0.04,0.03,-0.02,0.04,-0.11,1012.87
0.082,-0.09,1.00,-0.08,-0.13,-0.04,0.03,-0.02,0.04,-0.11,1012.87
0.102,-0.09,1.02,-0.08,-0.13,-0.04,0.03,-0.02,0.04,-0.11,1012.87
0.103,-0.09,1.02,-0.08,-0.13,-0.04,0.03,-0.00,0.02,-0.04,1012.87
0.104,-0.09,1.02,-0.08,-0.11,-0.04,0.03,-0.00,0.02,-0.04,1012.87
0.113,-0.09,1.02,-0.08,-0.11,-0.04,0.03,-0.00,0.02,-0.04,1012.86
0.121,-0.10,0.99,-0.06,-0.11,-0.04,0.03,-0.00,0.02,-0.04,1012.86
0.144,-0.11,1.00,-0.08,-0.11,-0.04,0.03,-0.00,0.02,-0.04,1012.86
0.146,-0.11,1.00,-0.08,-0.11,-0.04,0.03,-0.01,0.02,-0.01,1012.86
0.148,-0.11,1.00,-0.08,-0.05,-0.02,-0.03,-0.01,0.02,-0.01,1012.86
0.163,-0.08,1.00,-0.08,-0.05,-0.02,-0.03,-0.01,0.02,-0.01,1012.86
0.21,-0.08,1.00,-0.08,-0.05,-0.02,-0.03,-0.01,0.02,-0.01,1012.85
0.215,-0.08,1.00,-0.08,-0.05,-0.02,-0.03,-0.01,0.02,-0.01,1012.85
0.217,-0.08,1.00,-0.08,-0.05,-0.02,-0.03,-0.00,-0.00,-0.01,1012.85
0.219,-0.08,1.00,-0.08,-0.03,-0.05,-0.04,-0.00,-0.00,-0.01,1012.85
0.221,-0.09,1.00,-0.07,-0.03,-0.05,-0.04,-0.00,-0.00,-0.01,1012.85
0.249,-0.09,1.00,-0.08,-0.03,-0.05,-0.04,-0.00,-0.00,-0.01,1012.85
0.253,-0.09,1.00,-0.08,-0.03,-0.05,-0.04,-0.00,-0.00,-0.01,1012.85
0.255,-0.09,1.00,-0.08,-0.03,-0.05,-0.05,-0.00,-0.00,-0.01,1012.85
0.262,-0.09,1.00,-0.08,-0.03,-0.05,-0.05,-0.00,-0.00,-0.01,1012.85
0.265,-0.09,1.00,-0.07,-0.03,-0.05,-0.05,-0.00,-0.00,-0.01,1012.85
0.266,-0.09,1.01,-0.08,-0.03,-0.05,-0.05,-0.00,-0.00,-0.01,1012.85
0.267,-0.09,1.01,-0.08,-0.03,-0.05,-0.05,-0.00,0.01,-0.01,1012.85
0.269,-0.09,1.01,-0.08,0.02,-0.06,-0.01,-0.00,0.01,-0.01,1012.85
0.286,-0.10,1.00,-0.08,0.02,-0.06,-0.01,-0.00,0.01,-0.01,1012.85
0.303,-0.10,1.00,-0.08,0.02,-0.06,-0.01,-0.00,0.01,-0.01,1012.86
0.304,-0.09,1.00,-0.08,0.02,-0.06,-0.01,-0.00,0.01,-0.01,1012.86
0.304,-0.09,1.00,-0.08,0.02,-0.06,-0.01,-0.00,0.01,-0.01,1012.86
0.305,-0.09,1.00,-0.08,-0.04,-0.02,-0.04,-0.00,0.01,-0.01,1012.86
0.319,-0.09,1.00,-0.08,-0.04,-0.02,-0.04,-0.00,0.01,-0.01,1012.86
0.339,-0.09,1.00,-0.08,-0.04,-0.02,-0.04,-0.00,0.01,-0.01,1012.86
0.341,-0.09,1.00,-0.08,-0.04,-0.02,-0.04,-0.00,0.00,-0.01,1012.86
0.341,-0.09,1.00,-0.08,-0.03,-0.02,-0.04,-0.00,0.00,-0.01,1012.86
0.353,-0.09,1.00,-0.08,-0.03,-0.02,-0.04,-0.00,0.00,-0.01,1012.87
0.36,-0.09,1.00,-0.07,-0.03,-0.02,-0.04,-0.00,0.00,-0.01,1012.87
0.38,-0.09,1.00,-0.07,-0.03,-0.02,-0.04,-0.00,0.00,-0.01,1012.87
0.382,-0.09,1.00,-0.07,-0.03,-0.02,-0.04,-0.00,-0.00,-0.01,1012.87
0.384,-0.09,1.00,-0.07,-0.01,-0.03,-0.02,-0.00,-0.00,-0.01,1012.87
0.416,-0.09,1.00,-0.07,-0.01,-0.03,-0.02,-0.00,-0.00,-0.01,1012.87
0.418,-0.09,1.00,-0.07,-0.01,-0.03,-0.02,-0.00,-0.00,-0.01,1012.87
0.418,-0.09,1.00,-0.08,-0.01,-0.03,-0.02,-0.00,-0.00,-0.01,1012.87
0.419,-0.09,1.00,-0.08,-0.01,-0.03,-0.02,-0.00,0.00,-0.01,1012.87
0.42,-0.09,1.00,-0.08,0.01,-0.03,-0.01,-0.00,0.00,-0.01,1012.87
0.438,-0.09,1.00,-0.08,0.01,-0.03,-0.01,-0.00,0.00,-0.01,1012.87
0.458,-0.10,1.00,-0.08,0.01,-0.03,-0.01,-0.00,0.00,-0.01,1012.87
0.46,-0.10,1.00,-0.08,0.01,-0.03,-0.01,-0.00,0.01,-0.01,1012.87
0.46,-0.10,1.00,-0.08,0.01,-0.03,-0.01,-0.00,0.01,-0.01,1012.87
0.475,-0.10,1.00,-0.08,0.01,-0.03,-0.01,-0.00,0.01,-0.01,1012.88
0.478,-0.10,1.00,-0.07,0.01,-0.03,-0.01,-0.00,0.01,-0.01,1012.88
0.498,-0.09,1.00,-0.07,0.01,-0.03,-0.01,-0.00,0.01,-0.01,1012.88
0.5,-0.09,1.00,-0.07,0.01,-0.03,-0.01,-0.00,-0.00,-0.01,1012.88
0.501,-0.09,1.00,-0.07,-0.04,-0.02,-0.01,-0.00,-0.00,-0.01,1012.88
0.522,-0.09,1.00,-0.08,-0.04,-0.02,-0.01,-0.00,-0.00,-0.01,1012.88
0.533,-0.09,1.00,-0.08,-0.04,-0.02,-0.01,-0.00,-0.00,-0.01,1012.88
0.537,-0.09,1.00,-0.08,-0.04,-0.02,-0.01,-0.00,-0.00,-0.01,1012.88
0.538,-0.09,1.00,-0.08,-0.04,-0.02,-0.01,-0.00,-0.00,-0.00,1012.88
0.539,-0.09,1.00,-0.08,0.00,-0.01,-0.02,-0.00,-0.00,-0.00,1012.88
0.558,-0.09,1.00,-0.07,0.00,-0.01,-0.02,-0.00,-0.00,-0.00,1012.88
0.577,-0.09,1.00,-0.07,0.00,-0.01,-0.02,-0.00,-0.00,-0.00,1012.88
0.579,-0.09,1.00,-0.07,0.00,-0.01,-0.02,0.00,0.00,-0.00,1012.88
0.58,-0.09,1.00,-0.07,0.00,-0.01,-0.02,0.00,0.00,-0.00,1012.88
0.603,-0.09,1.00,-0.07,0.00,-0.01,-0.02,0.00,0.00,-0.00,1012.88
0.605,-0.08,1.01,-0.07,0.00,-0.01,-0.02,0.00,0.00,-0.00,1012.88
0.616,-0.08,1.01,-0.08,0.00,-0.01,-0.02,0.00,0.00,-0.00,1012.88
0.617,-0.08,1.01,-0.08,0.00,-0.01,-0.02,0.01,-0.00,-0.01,1012.88
0.618,-0.08,1.01,-0.08,0.03,0.02,0.01,0.01,-0.00,-0.01,1012.88
0.636,-0.07,1.01,-0.08,0.03,0.02,0.01,0.01,-0.00,-0.01,1012.88
0.652,-0.07,1.01,-0.08,0.03,0.02,0.01,0.01,-0.00,-0.01,1012.88
0.655,-0.08,1.01,-0.07,0.03,0.02,0.01,0.01,-0.00,-0.01,1012.88
0.655,-0.08,1.01,-0.07,0.03,0.02,0.01,0.03,-0.01,-0.03,1012.88
0.656,-0.08,1.01,-0.07,0.16,0.05,0.02,0.03,-0.01,-0.03,1012.88
0.685,-0.08,1.01,-0.07,0.16,0.05,0.02,0.03,-0.01,-0.03,1012.88
0.695,-0.08,1.01,-0.07,0.16,0.04,0.04,0.03,-0.01,-0.03,1012.88
0.697,-0.05,1.00,-0.07,0.16,0.04,0.04,0.03,-0.01,-0.03,1012.88
0.698,-0.05,1.00,-0.07,0.16,0.04,0.04,0.05,-0.03,-0.06,1012.88
0.713,-0.05,1.00,-0.07,0.16,0.04,0.04,0.05,-0.03,-0.06,1012.88
0.715,-0.01,1.00,-0.07,0.16,0.04,0.04,0.05,-0.03,-0.06,1012.88
0.735,0.04,1.00,-0.07,0.16,0.04,0.04,0.05,-0.03,-0.06,1012.88
0.737,0.04,1.00,-0.07,0.16,0.04,0.04,0.07,0.01,-0.12,1012.88
0.738,0.04,1.00,-0.07,0.51,0.02,0.07,0.07,0.01,-0.12,1012.88
0.755,0.05,1.00,-0.05,0.51,0.02,0.07,0.07,0.01,-0.12,1012.88
0.773,0.05,1.00,-0.05,0.51,0.02,0.07,0.07,0.01,-0.12,1012.88
0.789,0.01,0.99,-0.08,0.51,0.02,0.07,0.07,0.01,-0.12,1012.88
0.791,0.01,0.99,-0.08,0.51,0.02,0.07,0.03,0.18,-0.27,1012.88
0.793,0.01,0.99,-0.08,1.35,-0.02,0.11,0.03,0.18,-0.27,1012.88
0.812,-0.02,0.98,-0.08,1.35,-0.02,0.11,0.03,0.18,-0.27,1012.88
0.814,-0.05,0.99,-0.08,1.35,-0.02,0.11,0.03,0.18,-0.27,1012.88
0.815,-0.05,0.99,-0.08,1.35,-0.02,0.11,-0.01,0.37,-0.45,1012.88
0.815,-0.05,0.99,-0.08,1.49,0.00,0.12,-0.01,0.37,-0.45,1012.88
0.832,-0.05,0.99,-0.08,1.49,0.00,0.12,-0.01,0.37,-0.45,1012.88
0.835,-0.07,0.99,-0.10,1.49,0.00,0.12,-0.01,0.37,-0.45,1012.88
0.853,-0.08,1.00,-0.08,1.49,0.00,0.12,-0.01,0.37,-0.45,1012.88
0.855,-0.08,1.00,-0.08,1.49,0.00,0.12,-0.03,0.40,-0.56,1012.88
0.856,-0.08,1.00,-0.08,0.86,-0.11,-0.04,-0.03,0.40,-0.56,1012.88
0.874,-0.12,0.99,-0.11,0.86,-0.11,-0.04,-0.03,0.40,-0.56,1012.88
0.899,-0.12,0.99,-0.11,0.86,-0.11,-0.04,-0.03,0.40,-0.56,1012.88
0.901,-0.18,0.99,-0.11,0.86,-0.11,-0.04,-0.03,0.40,-0.56,1012.88
0.903,-0.18,0.99,-0.11,0.86,-0.11,-0.04,-0.05,0.31,-0.59,1012.88
0.904,-0.18,0.99,-0.11,0.34,0.01,-0.19,-0.05,0.31,-0.59,1012.88
0.916,-0.27,0.97,-0.03,0.34,0.01,-0.19,-0.05,0.31,-0.59,1012.88
0.932,-0.29,0.94,0.01,0.34,0.01,-0.19,-0.05,0.31,-0.59,1012.88
0.933,-0.29,0.94,0.01,0.56,0.05,-0.18,-0.05,0.31,-0.59,1012.88
0.934,-0.29,0.94,0.01,0.56,0.05,-0.18,-0.03,0.30,-0.61,1012.88
0.953,-0.24,0.96,0.00,0.56,0.05,-0.18,-0.03,0.30,-0.61,1012.88
0.954,-0.24,0.96,0.00,0.56,0.05,-0.18,-0.03,0.30,-0.61,1012.88
0.972,-0.23,0.98,0.00,0.56,0.05,-0.18,-0.03,0.30,-0.61,1012.88
0.974,-0.23,0.98,0.00,0.56,0.05,-0.18,0.07,0.30,-0.56,1012.88
0.975,-0.23,0.98,0.00,-0.63,-0.27,0.79,0.07,0.30,-0.56,1012.88
0.999,-0.23,0.97,-0.05,-0.63,-0.27,0.79,0.07,0.30,-0.56,1012.88
1.015,-0.16,0.98,-0.09,-0.63,-0.27,0.79,0.07,0.30,-0.56,1012.88
1.018,-0.16,0.98,-0.09,-0.63,-0.27,0.79,0.18,0.48,-0.53,1012.88
1.019,-0.16,0.98,-0.09,0.16,-0.02,0.51,0.18,0.48,-0.53,1012.88
1.02,-0.16,0.98,-0.09,0.16,-0.02,0.51,0.18,0.48,-0.53,1012.88
1.031,-0.21,0.98,-0.05,0.16,-0.02,0.51,0.18,0.48,-0.53,1012.88
1.051,-0.33,0.96,-0.07,0.16,-0.02,0.51,0.18,0.48,-0.53,1012.88
1.053,-0.33,0.96,-0.07,0.16,-0.02,0.51,0.18,0.74,-0.60,1012.88
1.054,-0.33,0.96,-0.07,0.35,0.04,0.63,0.18,0.74,-0.60,1012.88
1.07,-0.43,0.95,-0.06,0.35,0.04,0.63,0.18,0.74,-0.60,1012.88
1.073,-0.43,0.95,-0.06,0.35,0.04,0.63,0.18,0.74,-0.60,1012.88
1.095,-0.45,0.94,-0.08,0.35,0.04,0.63,0.18,0.74,-0.60,1012.88
1.098,-0.45,0.94,-0.08,0.35,0.04,0.63,0.23,0.79,-0.59,1012.88
1.1,-0.45,0.94,-0.08,-0.62,-0.04,0.64,0.23,0.79,-0.59,1012.88
1.119,-0.41,0.93,-0.11,-0.62,-0.04,0.64,0.23,0.79,-0.59,1012.88
1.131,-0.35,0.95,-0.16,-0.62,-0.04,0.64,0.23,0.79,-0.59,1012.88
1.133,-0.35,0.95,-0.16,-0.62,-0.04,0.64,0.35,0.62,-0.38,1012.88
1.134,-0.35,0.95,-0.16,-1.24,-0.22,0.28,0.35,0.62,-0.38,1012.88
1.135,-0.35,0.95,-0.16,-1.24,-0.22,0.28,0.35,0.62,-0.38,1012.88
1.149,-0.31,0.98,-0.19,-1.24,-0.22,0.28,0.35,0.62,-0.38,1012.88
1.169,-0.32,0.96,-0.20,-1.24,-0.22,0.28,0.35,0.62,-0.38,1012.88
1.171,-0.32,0.96,-0.20,-1.24,-0.22,0.28,0.43,0.27,-0.22,1012.88
1.172,-0.32,0.96,-0.20,-1.16,-0.17,0.46,0.43,0.27,-0.22,1012.88
1.189,-0.34,0.92,-0.24,-1.16,-0.17,0.46,0.43,0.27,-0.22,1012.88
1.214,-0.34,0.92,-0.24,-1.16,-0.17,0.46,0.43,0.27,-0.22,1012.88
1.217,-0.32,0.94,-0.27,-1.16,-0.17,0.46,0.43,0.27,-0.22,1012.88
1.218,-0.32,0.94,-0.27,-1.16,-0.17,0.46,0.42,0.04,-0.19,1012.88
1.219,-0.32,0.94,-0.27,-0.32,0.04,-0.29,0.42,0.04,-0.19,1012.88
1.229,-0.28,0.96,-0.25,-0.32,0.04,-0.29,0.42,0.04,-0.19,1012.88
1.249,-0.26,0.97,-0.25,-0.32,0.04,-0.29,0.42,0.04,-0.19,1012.88
1.251,-0.26,0.97,-0.25,-0.32,0.04,-0.29,0.34,0.04,-0.14,1012.88
1.253,-0.26,0.97,-0.25,0.11,0.11,-0.64,0.34,0.04,-0.14,1012.88
1.254,-0.26,0.97,-0.25,0.11,0.11,-0.64,0.34,0.04,-0.14,1012.88
1.269,-0.25,0.99,-0.31,0.11,0.11,-0.64,0.34,0.04,-0.14,1012.88
1.297,-0.26,0.97,-0.34,0.11,0.11,-0.64,0.34,0.04,-0.14,1012.88
1.302,-0.26,0.97,-0.34,0.11,0.11,-0.64,0.26,0.03,-0.18,1012.88
1.304,-0.26,0.97,-0.34,0.17,0.14,-0.53,0.26,0.03,-0.18,1012.88
1.309,-0.34,0.97,-0.31,0.17,0.14,-0.53,0.26,0.03,-0.18,1012.88
1.337,-0.34,0.97,-0.31,0.17,0.14,-0.53,0.26,0.03,-0.18,1012.88
1.344,-0.36,0.96,-0.25,0.17,0.14,-0.53,0.26,0.03,-0.18,1012.88
1.344,-0.36,0.96,-0.25,0.17,0.14,-0.53,0.12,0.05,-0.27,1012.88
1.345,-0.36,0.96,-0.25,0.29,0.40,-1.06,0.12,0.05,-0.27,1012.88
1.349,-0.29,0.94,-0.25,0.29,0.40,-1.06,0.12,0.05,-0.27,1012.88
1.366,-0.28,0.95,-0.26,0.29,0.40,-1.06,0.12,0.05,-0.27,1012.88
1.368,-0.28,0.95,-0.26,0.29,0.40,-1.06,0.04,-0.12,-0.27,1012.88
1.368,-0.28,0.95,-0.26,0.12,0.15,-0.38,0.04,-0.12,-0.27,1012.88
1.371,-0.28,0.95,-0.26,0.12,0.15,-0.38,0.04,-0.12,-0.27,1012.87
1.386,-0.27,0.95,-0.27,0.12,0.15,-0.38,0.04,-0.12,-0.27,1012.87
1.406,-0.26,0.95,-0.26,0.12,0.15,-0.38,0.04,-0.12,-0.27,1012.87
1.407,-0.26,0.95,-0.26,0.12,0.15,-0.38,-0.00,-0.17,-0.30,1012.87
1.408,-0.26,0.95,-0.26,0.24,0.19,-0.40,-0.00,-0.17,-0.30,1012.87
1.426,-0.31,0.98,-0.29,0.24,0.19,-0.40,-0.00,-0.17,-0.30,1012.87
1.433,-0.31,0.98,-0.29,0.24,0.19,-0.40,-0.00,-0.17,-0.30,1012.87
1.447,-0.35,0.95,-0.28,0.24,0.19,-0.40,-0.00,-0.17,-0.30,1012.87
1.452,-0.35,0.95,-0.28,0.24,0.19,-0.40,-0.09,-0.15,-0.40,1012.87
1.454,-0.35,0.95,-0.28,0.66,0.32,-0.63,-0.09,-0.15,-0.40,1012.87
1.466,-0.33,0.92,-0.28,0.66,0.32,-0.63,-0.09,-0.15,-0.40,1012.87
1.488,-0.31,0.95,-0.23,0.66,0.32,-0.63,-0.09,-0.15,-0.40,1012.87
1.491,-0.31,0.95,-0.23,0.66,0.32,-0.63,-0.16,-0.25,-0.49,1012.87
1.493,-0.31,0.95,-0.23,0.37,0.18,-0.64,-0.16,-0.25,-0.49,1012.87
1.495,-0.31,0.95,-0.23,0.37,0.18,-0.64,-0.16,-0.25,-0.49,1012.86
1.522,-0.32,0.96,-0.21,0.37,0.18,-0.64,-0.16,-0.25,-0.49,1012.86
1.552,-0.31,0.95,-0.25,0.37,0.18,-0.64,-0.16,-0.25,-0.49,1012.86
1.554,-0.31,0.95,-0.25,0.37,0.18,-0.64,-0.23,-0.33,-0.57,1012.86
1.555,-0.31,0.95,-0.25,0.59,0.24,-0.75,-0.23,-0.33,-0.57,1012.86
1.556,-0.38,0.94,-0.22,0.59,0.24,-0.75,-0.23,-0.33,-0.57,1012.86
1.557,-0.38,0.94,-0.22,0.59,0.24,-0.75,-0.23,-0.33,-0.57,1012.86
1.565,-0.43,0.94,-0.20,0.59,0.24,-0.75,-0.23,-0.33,-0.57,1012.86
1.567,-0.43,0.94,-0.20,0.59,0.24,-0.75,-0.33,-0.04,-0.70,1012.86
1.569,-0.43,0.94,-0.20,0.79,0.44,-0.48,-0.33,-0.04,-0.70,1012.86
1.585,-0.45,0.95,-0.14,0.79,0.44,-0.48,-0.33,-0.04,-0.70,1012.86
1.607,-0.51,0.98,-0.13,0.79,0.44,-0.48,-0.33,-0.04,-0.70,1012.86
1.611,-0.51,0.98,-0.13,-0.23,0.59,0.08,-0.33,-0.04,-0.70,1012.86
1.612,-0.51,0.98,-0.13,-0.23,0.59,0.08,-0.39,0.25,-0.82,1012.86
1.613,-0.51,0.98,-0.13,-0.23,0.59,0.08,-0.39,0.25,-0.82,1012.86
1.623,-0.55,1.00,-0.15,-0.23,0.59,0.08,-0.39,0.25,-0.82,1012.86
1.643,-0.56,1.03,-0.18,-0.23,0.59,0.08,-0.39,0.25,-0.82,1012.86
1.644,-0.56,1.03,-0.18,-0.23,0.59,0.08,-0.43,0.38,-0.78,1012.86
1.644,-0.56,1.03,-0.18,0.02,0.69,0.00,-0.43,0.38,-0.78,1012.86
1.663,-0.60,1.12,-0.17,0.02,0.69,0.00,-0.43,0.38,-0.78,1012.86
1.673,-0.60,1.12,-0.17,0.02,0.69,0.00,-0.43,0.38,-0.78,1012.84
1.684,-0.65,1.22,-0.13,0.02,0.69,0.00,-0.43,0.38,-0.78,1012.84
1.687,-0.65,1.22,-0.13,0.02,0.69,0.00,-0.41,0.53,-0.63,1012.84
1.689,-0.65,1.22,-0.13,-0.80,1.68,-0.13,-0.41,0.53,-0.63,1012.84
1.71,-0.62,1.37,-0.06,-0.80,1.68,-0.13,-0.41,0.53,-0.63,1012.84
1.723,-0.52,1.45,-0.08,-0.80,1.68,-0.13,-0.41,0.53,-0.63,1012.84
1.724,-0.52,1.45,-0.08,-0.80,1.68,-0.13,-0.33,0.50,-0.48,1012.84
1.744,-0.52,1.45,-0.08,-0.90,4.57,0.60,-0.33,0.50,-0.48,1012.84
1.746,-0.52,1.45,-0.08,-0.90,4.57,0.60,-0.33,0.50,-0.48,1012.84
1.747,-0.37,1.44,-0.35,-0.90,4.57,0.60,-0.33,0.50,-0.48,1012.84
1.764,-0.34,1.39,-0.54,-0.90,4.57,0.60,-0.33,0.50,-0.48,1012.84
1.768,-0.34,1.39,-0.54,-0.90,4.57,0.60,-0.48,0.45,-0.31,1012.84
1.769,-0.34,1.39,-0.54,-0.81,4.52,0.52,-0.48,0.45,-0.31,1012.84
1.784,-0.49,1.38,-0.60,-0.81,4.52,0.52,-0.48,0.45,-0.31,1012.84
1.792,-0.49,1.38,-0.60,-0.81,4.52,0.52,-0.48,0.45,-0.31,1012.85
1.808,-0.39,1.29,-0.42,-0.81,4.52,0.52,-0.48,0.45,-0.31,1012.85
1.81,-0.39,1.29,-0.42,-0.81,4.52,0.52,-0.64,0.40,-0.14,1012.85
1.811,-0.39,1.29,-0.42,1.11,4.98,-3.55,-0.64,0.40,-0.14,1012.85
1.839,-0.24,0.94,-0.28,1.11,4.98,-3.55,-0.64,0.40,-0.14,1012.85
1.841,0.04,1.13,-0.05,1.11,4.98,-3.55,-0.64,0.40,-0.14,1012.85
1.846,0.04,1.13,-0.05,1.11,4.98,-3.55,-1.02,-0.92,0.33,1012.85
1.848,0.04,1.13,-0.05,2.95,2.09,-1.64,-1.02,-0.92,0.33,1012.85
1.852,0.04,1.13,-0.05,2.95,2.09,-1.64,-1.02,-0.92,0.33,1012.85
1.861,0.51,1.58,-0.28,2.95,2.09,-1.64,-1.02,-0.92,0.33,1012.85
1.881,0.54,1.37,-0.31,2.95,2.09,-1.64,-1.02,-0.92,0.33,1012.85
1.883,0.54,1.37,-0.31,2.95,2.09,-1.64,-1.59,-0.16,-0.30,1012.85
1.885,0.54,1.37,-0.31,3.01,2.08,-2.19,-1.59,-0.16,-0.30,1012.85
1.911,-0.01,1.17,-0.15,3.01,2.08,-2.19,-1.59,-0.16,-0.30,1012.85
1.917,-0.01,1.17,-0.15,3.01,2.08,-2.19,-1.59,-0.16,-0.30,1012.87
1.921,-0.89,1.15,-0.51,3.01,2.08,-2.19,-1.59,-0.16,-0.30,1012.87
1.923,-0.89,1.15,-0.51,3.01,2.08,-2.19,-1.77,2.03,-3.16,1012.87
1.924,-0.89,1.15,-0.51,9.27,5.12,-2.30,-1.77,2.03,-3.16,1012.87
1.94,-1.43,1.00,-0.46,9.27,5.12,-2.30,-1.77,2.03,-3.16,1012.87
1.96,-1.38,0.95,-0.06,9.27,5.12,-2.30,-1.77,2.03,-3.16,1012.87
1.963,-1.38,0.95,-0.06,9.27,5.12,-2.30,-1.35,1.93,-4.26,1012.87
1.965,-1.38,0.95,-0.06,-4.88,2.86,-3.11,-1.35,1.93,-4.26,1012.87
1.971,-1.38,0.95,-0.06,-4.88,2.86,-3.11,-1.35,1.93,-4.26,1012.87
1.98,-1.42,0.99,-0.16,-4.88,2.86,-3.11,-1.35,1.93,-4.26,1012.87
2.0,-1.41,0.94,-0.30,-4.88,2.86,-3.11,-1.35,1.93,-4.26,1012.87
2.002,-1.41,0.94,-0.30,-4.88,2.86,-3.11,-0.84,-0.40,-2.96,1012.87
2.002,-1.41,0.94,-0.30,-4.02,3.69,-3.40,-0.84,-0.40,-2.96,1012.87
2.027,-1.15,0.77,-0.25,-4.02,3.69,-3.40,-0.84,-0.40,-2.96,1012.87
2.032,-1.15,0.77,-0.25,-4.02,3.69,-3.40,-0.84,-0.40,-2.96,1012.87
2.039,-0.76,0.56,-0.08,-4.02,3.69,-3.40,-0.84,-0.40,-2.96,1012.87
2.04,-0.76,0.56,-0.08,-4.02,3.69,-3.40,-0.68,-2.39,-1.56,1012.87
2.041,-0.76,0.56,-0.08,-4.47,2.85,-3.28,-0.68,-2.39,-1.56,1012.87
2.059,-0.51,0.41,0.24,-4.47,2.85,-3.28,-0.68,-2.39,-1.56,1012.87
2.078,-0.44,0.28,0.38,-4.47,2.85,-3.28,-0.68,-2.39,-1.56,1012.87
2.08,-0.44,0.28,0.38,-4.47,2.85,-3.28,-0.90,-2.45,-0.29,1012.87
2.08,-0.44,0.28,0.38,2.83,-1.71,-0.20,-0.90,-2.45,-0.29,1012.87
2.092,-0.44,0.28,0.38,2.83,-1.71,-0.20,-0.90,-2.45,-0.29,1012.86
2.109,-0.39,0.16,0.33,2.83,-1.71,-0.20,-0.90,-2.45,-0.29,1012.86
2.118,-0.26,0.03,0.29,2.83,-1.71,-0.20,-0.90,-2.45,-0.29,1012.86
2.12,-0.26,0.03,0.29,2.83,-1.71,-0.20,-0.43,-0.80,0.36,1012.86
2.121,-0.26,0.03,0.29,2.63,-1.76,-0.55,-0.43,-0.80,0.36,1012.86
2.151,-0.34,-0.04,0.16,2.63,-1.76,-0.55,-0.43,-0.80,0.36,1012.86
2.154,-0.34,-0.04,0.16,2.63,-1.76,-0.55,-0.43,-0.80,0.36,1012.86
2.158,-0.60,0.02,0.09,2.63,-1.76,-0.55,-0.43,-0.80,0.36,1012.86
2.16,-0.60,0.02,0.09,2.63,-1.76,-0.55,0.02,1.48,0.87,1012.86
2.161,-0.60,0.02,0.09,4.80,-5.55,0.71,0.02,1.48,0.87,1012.86
2.186,-0.83,0.02,0.11,4.80,-5.55,0.71,0.02,1.48,0.87,1012.86
2.213,-0.84,-0.03,0.16,4.80,-5.55,0.71,0.02,1.48,0.87,1012.86
2.215,-0.84,-0.03,0.16,4.80,-5.55,0.71,0.20,1.68,1.45,1012.86
2.216,-0.84,-0.03,0.16,0.35,-6.36,-0.10,0.20,1.68,1.45,1012.86
2.217,-0.84,-0.03,0.16,0.35,-6.36,-0.10,0.20,1.68,1.45,1012.85
2.218,-0.65,-0.04,0.21,0.35,-6.36,-0.10,0.20,1.68,1.45,1012.85
2.236,-0.50,-0.00,0.20,0.35,-6.36,-0.10,0.20,1.68,1.45,1012.85
2.238,-0.50,-0.00,0.20,0.35,-6.36,-0.10,0.37,0.30,2.27,1012.85
2.24,-0.50,-0.00,0.20,-0.24,-6.93,0.09,0.37,0.30,2.27,1012.85
2.257,-0.37,0.01,0.20,-0.24,-6.93,0.09,0.37,0.30,2.27,1012.85
2.273,-0.37,0.01,0.20,-0.24,-6.93,0.09,0.37,0.30,2.27,1012.84
2.277,-0.37,0.01,0.20,1.42,-7.69,1.05,0.37,0.30,2.27,1012.84
2.279,-0.37,0.02,0.22,1.42,-7.69,1.05,0.37,0.30,2.27,1012.84
2.281,-0.37,0.02,0.22,1.42,-7.69,1.05,0.53,-0.01,2.61,1012.84
2.303,-0.45,0.04,0.23,1.42,-7.69,1.05,0.53,-0.01,2.61,1012.84
2.315,-0.50,0.08,0.23,1.42,-7.69,1.05,0.53,-0.01,2.61,1012.84
2.316,-0.50,0.08,0.23,1.42,-7.69,1.05,0.53,0.66,2.28,1012.84
2.317,-0.50,0.08,0.23,1.37,-7.54,1.55,0.53,0.66,2.28,1012.84
2.331,-0.50,0.08,0.23,1.37,-7.54,1.55,0.53,0.66,2.28,1012.83
2.335,-0.51,0.13,0.20,1.37,-7.54,1.55,0.53,0.66,2.28,1012.83
2.359,-0.51,0.13,0.20,0.79,-7.80,1.92,0.53,0.66,2.28,1012.83
2.363,-0.40,0.04,0.21,0.79,-7.80,1.92,0.53,0.66,2.28,1012.83
2.364,-0.40,0.04,0.21,0.79,-7.80,1.92,0.47,1.17,1.79,1012.83
2.374,-0.34,-0.19,0.15,0.79,-7.80,1.92,0.47,1.17,1.79,1012.83
2.392,-0.34,-0.19,0.15,0.79,-7.80,1.92,0.47,1.17,1.79,1012.82
2.414,-0.34,-0.19,0.15,0.63,-8.41,2.07,0.47,1.17,1.79,1012.82
2.418,-0.60,-0.40,0.10,0.63,-8.41,2.07,0.47,1.17,1.79,1012.82
2.42,-0.60,-0.40,0.10,0.63,-8.41,2.07,0.63,1.70,1.21,1012.82
2.424,-2.16,1.58,0.24,0.63,-8.41,2.07,0.63,1.70,1.21,1012.82
2.445,-4.47,3.85,-0.18,0.63,-8.41,2.07,0.63,1.70,1.21,1012.82
2.447,-4.47,3.85,-0.18,0.63,-8.41,2.07,1.35,0.60,-1.46,1012.82
2.449,-4.47,3.85,-0.18,-18.13,8.24,1.29,1.35,0.60,-1.46,1012.82
2.452,-4.47,3.85,-0.18,-18.13,8.24,1.29,1.35,0.60,-1.46,1012.83
2.454,-1.91,1.26,-0.96,-18.13,8.24,1.29,1.35,0.60,-1.46,1012.83
2.473,2.13,-0.56,-0.07,-18.13,8.24,1.29,1.35,0.60,-1.46,1012.83
2.475,2.13,-0.56,-0.07,-18.13,8.24,1.29,0.62,-2.03,-0.70,1012.83
2.477,2.13,-0.56,-0.07,-17.55,8.27,1.01,0.62,-2.03,-0.70,1012.83
2.497,0.70,0.05,1.33,-17.55,8.27,1.01,0.62,-2.03,-0.70,1012.83
2.533,0.70,0.05,1.33,-17.55,8.27,1.01,0.62,-2.03,-0.70,1012.84
2.536,-1.63,1.26,-0.42,-17.55,8.27,1.01,0.62,-2.03,-0.70,1012.84
2.537,-1.63,1.26,-0.42,-17.55,8.27,1.01,-0.19,-0.35,1.29,1012.84
2.539,-1.63,1.26,-0.42,8.50,-5.89,1.29,-0.19,-0.35,1.29,1012.84
2.54,-1.08,1.21,-0.25,8.50,-5.89,1.29,-0.19,-0.35,1.29,1012.84
2.554,-0.61,0.67,0.19,8.50,-5.89,1.29,-0.19,-0.35,1.29,1012.84
2.556,-0.61,0.67,0.19,8.50,-5.89,1.29,0.32,1.44,-0.70,1012.84
2.558,-0.61,0.67,0.19,-5.05,2.03,-0.83,0.32,1.44,-0.70,1012.84
2.572,-0.61,0.67,0.19,-5.05,2.03,-0.83,0.32,1.44,-0.70,1012.84
2.575,-0.84,0.95,-0.15,-5.05,2.03,-0.83,0.32,1.44,-0.70,1012.84
2.593,-0.68,0.92,-0.13,-5.05,2.03,-0.83,0.32,1.44,-0.70,1012.84
2.596,-0.68,0.92,-0.13,-5.05,2.03,-0.83,0.26,1.27,0.21,1012.84
2.598,-0.68,0.92,-0.13,-5.08,1.95,-0.44,0.26,1.27,0.21,1012.84
2.631,-0.69,0.69,0.01,-5.08,1.95,-0.44,0.26,1.27,0.21,1012.84
2.641,-0.69,0.69,0.01,-5.08,1.95,-0.44,0.26,1.27,0.21,1012.84
2.642,-0.73,0.86,-0.16,-5.08,1.95,-0.44,0.26,1.27,0.21,1012.84
2.643,-0.73,0.86,-0.16,-5.08,1.95,-0.44,0.51,-0.02,0.30,1012.84
2.644,-0.73,0.86,-0.16,-1.52,0.02,0.43,0.51,-0.02,0.30,1012.84
2.66,-0.53,0.99,-0.31,-1.52,0.02,0.43,0.51,-0.02,0.30,1012.84
2.671,-0.28,0.90,-0.26,-1.52,0.02,0.43,0.51,-0.02,0.30,1012.84
2.671,-0.28,0.90,-0.26,-1.52,0.02,0.43,0.66,-0.35,0.49,1012.84
2.672,-0.28,0.90,-0.26,0.50,0.55,-0.93,0.66,-0.35,0.49,1012.84
2.691,-0.28,0.90,-0.26,0.50,0.55,-0.93,0.66,-0.35,0.49,1012.83
2.694,-0.24,0.82,-0.28,0.50,0.55,-0.93,0.66,-0.35,0.49,1012.83
2.717,-0.24,0.82,-0.28,0.39,0.50,-0.76,0.66,-0.35,0.49,1012.83
2.72,-0.40,0.90,-0.29,0.39,0.50,-0.76,0.66,-0.35,0.49,1012.83
2.722,-0.40,0.90,-0.29,0.39,0.50,-0.76,0.41,0.07,0.30,1012.83
2.745,-0.57,0.96,-0.30,0.39,0.50,-0.76,0.41,0.07,0.30,1012.83
2.752,-0.60,0.85,-0.22,0.39,0.50,-0.76,0.41,0.07,0.30,1012.83
2.753,-0.60,0.85,-0.22,0.39,0.50,-0.76,0.20,0.21,-0.04,1012.83
2.754,-0.60,0.85,-0.22,1.45,0.32,-1.11,0.20,0.21,-0.04,1012.83
2.755,-0.60,0.85,-0.22,1.45,0.32,-1.11,0.20,0.21,-0.04,1012.83
2.769,-0.48,0.81,-0.14,1.45,0.32,-1.11,0.20,0.21,-0.04,1012.83
2.789,-0.36,0.90,-0.17,1.45,0.32,-1.11,0.20,0.21,-0.04,1012.83
2.791,-0.36,0.90,-0.17,1.45,0.32,-1.11,0.12,-0.13,0.04,1012.83
2.793,-0.36,0.90,-0.17,0.69,-0.05,0.02,0.12,-0.13,0.04,1012.83
2.812,-0.32,0.97,-0.23,0.69,-0.05,0.02,0.12,-0.13,0.04,1012.83
2.816,-0.32,0.97,-0.23,0.69,-0.05,0.02,0.12,-0.13,0.04,1012.83
2.845,-0.32,0.97,-0.23,0.70,-0.04,0.01,0.12,-0.13,0.04,1012.83
2.848,-0.37,0.92,-0.24,0.70,-0.04,0.01,0.12,-0.13,0.04,1012.83
2.85,-0.37,0.92,-0.24,0.70,-0.04,0.01,0.09,-0.21,-0.04,1012.83
2.852,-0.51,0.85,-0.15,0.70,-0.04,0.01,0.09,-0.21,-0.04,1012.83
2.869,-0.59,0.88,-0.18,0.70,-0.04,0.01,0.09,-0.21,-0.04,1012.83
2.87,-0.59,0.88,-0.18,0.70,-0.04,0.01,-0.04,0.06,-0.36,1012.83
2.871,-0.59,0.88,-0.18,1.55,0.56,-0.28,-0.04,0.06,-0.36,1012.83
2.872,-0.59,0.88,-0.18,1.55,0.56,-0.28,-0.04,0.06,-0.36,1012.84
2.889,-0.59,0.87,-0.21,1.55,0.56,-0.28,-0.04,0.06,-0.36,1012.84
2.911,-0.60,0.86,-0.18,1.55,0.56,-0.28,-0.04,0.06,-0.36,1012.84
2.914,-0.60,0.86,-0.18,1.55,0.56,-0.28,-0.07,0.10,-0.40,1012.84
2.916,-0.60,0.86,-0.18,-0.23,0.25,-0.11,-0.07,0.10,-0.40,1012.84
2.953,-0.67,0.92,-0.13,-0.23,0.25,-0.11,-0.07,0.10,-0.40,1012.84
2.955,-0.67,0.92,-0.13,-0.23,0.25,-0.11,-0.07,0.10,-0.40,1012.84
2.956,-0.70,1.03,-0.13,-0.23,0.25,-0.11,-0.07,0.10,-0.40,1012.84
2.958,-0.70,1.03,-0.13,-0.23,0.25,-0.11,-0.10,0.30,-0.30,1012.84
2.959,-0.70,1.03,-0.13,-0.15,0.31,-0.07,-0.10,0.30,-0.30,1012.84
2.967,-0.66,1.18,-0.21,-0.15,0.31,-0.07,-0.10,0.30,-0.30,1012.84
2.989,-0.66,1.18,-0.21,-0.91,1.98,0.32,-0.10,0.30,-0.30,1012.84
2.992,-0.69,1.25,-0.17,-0.91,1.98,0.32,-0.10,0.30,-0.30,1012.84
2.994,-0.69,1.25,-0.17,-0.91,1.98,0.32,-0.08,0.54,-0.18,1012.84
2.996,-0.69,1.25,-0.17,-0.91,1.98,0.32,-0.08,0.54,-0.18,1012.84
3.023,-0.71,1.39,-0.19,-0.91,1.98,0.32,-0.08,0.54,-0.18,1012.84
3.053,-0.60,1.58,-0.37,-0.91,1.98,0.32,-0.08,0.54,-0.18,1012.84
3.055,-0.60,1.58,-0.37,-0.91,1.98,0.32,-0.11,0.54,-0.14,1012.84
3.057,-0.60,1.58,-0.37,-0.80,5.47,-0.43,-0.11,0.54,-0.14,1012.84
3.058,-0.54,1.44,-0.42,-0.80,5.47,-0.43,-0.11,0.54,-0.14,1012.84
3.06,-0.54,1.44,-0.42,-0.80,5.47,-0.43,-0.11,0.54,-0.14,1012.82
3.068,-0.50,1.40,-0.38,-0.80,5.47,-0.43,-0.11,0.54,-0.14,1012.82
3.07,-0.50,1.40,-0.38,-0.80,5.47,-0.43,-0.30,0.06,-0.03,1012.82
3.07,-0.50,1.40,-0.38,-0.78,5.37,-0.51,-0.30,0.06,-0.03,1012.82
3.085,-0.45,1.47,-0.46,-0.78,5.37,-0.51,-0.30,0.06,-0.03,1012.82
3.115,-0.31,1.51,-0.67,-0.78,5.37,-0.51,-0.30,0.06,-0.03,1012.82
3.118,-0.31,1.51,-0.67,-0.78,5.37,-0.51,-0.43,-0.67,0.42,1012.82
3.12,-0.31,1.51,-0.67,0.83,5.47,-2.49,-0.43,-0.67,0.42,1012.82
3.122,-0.31,1.51,-0.67,0.83,5.47,-2.49,-0.43,-0.67,0.42,1012.82
3.125,0.18,1.16,-0.45,0.83,5.47,-2.49,-0.43,-0.67,0.42,1012.82
3.145,0.56,1.23,0.08,0.83,5.47,-2.49,-0.43,-0.67,0.42,1012.82
3.147,0.56,1.23,0.08,0.83,5.47,-2.49,-0.87,-1.68,0.80,1012.82
3.148,0.56,1.23,0.08,6.76,3.82,-2.40,-0.87,-1.68,0.80,1012.82
3.164,0.33,1.52,-0.43,6.76,3.82,-2.40,-0.87,-1.68,0.80,1012.82
3.17,0.33,1.52,-0.43,6.76,3.82,-2.40,-0.87,-1.68,0.80,1012.82
3.185,-0.26,1.47,-0.41,6.76,3.82,-2.40,-0.87,-1.68,0.80,1012.82
3.187,-0.26,1.47,-0.41,6.76,3.82,-2.40,-1.13,-0.38,-1.39,1012.82
3.189,-0.26,1.47,-0.41,7.14,4.03,-2.82,-1.13,-0.38,-1.39,1012.82
3.21,-1.15,1.06,-0.35,7.14,4.03,-2.82,-1.13,-0.38,-1.39,1012.82
3.226,-1.81,0.76,-0.02,7.14,4.03,-2.82,-1.13,-0.38,-1.39,1012.82
3.229,-1.81,0.76,-0.02,7.14,4.03,-2.82,-1.37,1.16,-4.54,1012.82
3.231,-1.81,0.76,-0.02,3.60,5.59,-3.38,-1.37,1.16,-4.54,1012.82
3.233,-1.81,0.76,-0.02,3.60,5.59,-3.38,-1.37,1.16,-4.54,1012.82
3.246,-1.65,0.67,0.34,3.60,5.59,-3.38,-1.37,1.16,-4.54,1012.82
3.265,-1.65,0.67,0.34,-7.26,0.56,1.31,-1.37,1.16,-4.54,1012.82
3.269,-1.32,0.72,-0.03,-7.26,0.56,1.31,-1.37,1.16,-4.54,1012.82
3.271,-1.32,0.72,-0.03,-7.26,0.56,1.31,-1.15,0.75,-4.02,1012.82
3.285,-1.24,0.74,-0.24,-7.26,0.56,1.31,-1.15,0.75,-4.02,1012.82
3.291,-1.24,0.74,-0.24,-7.26,0.56,1.31,-1.15,0.75,-4.02,1012.83
3.315,-1.18,0.60,-0.16,-7.26,0.56,1.31,-1.15,0.75,-4.02,1012.83
3.318,-1.18,0.60,-0.16,-7.26,0.56,1.31,-0.40,-1.25,-2.51,1012.83
3.319,-1.18,0.60,-0.16,-6.55,1.39,0.77,-0.40,-1.25,-2.51,1012.83
3.323,-0.72,0.35,-0.03,-6.55,1.39,0.77,-0.40,-1.25,-2.51,1012.83
3.348,-0.27,0.16,0.16,-6.55,1.39,0.77,-0.40,-1.25,-2.51,1012.83
3.35,-0.27,0.16,0.16,-6.55,1.39,0.77,-0.74,-2.15,-1.45,1012.83
3.351,-0.27,0.16,0.16,-0.95,0.43,-2.49,-0.74,-2.15,-1.45,1012.83
3.356,-0.27,0.16,0.16,-0.95,0.43,-2.49,-0.74,-2.15,-1.45,1012.83
3.364,-0.27,0.09,0.19,-0.95,0.43,-2.49,-0.74,-2.15,-1.45,1012.83
3.381,-0.27,0.07,0.14,-0.95,0.43,-2.49,-0.74,-2.15,-1.45,1012.83
3.383,-0.27,0.07,0.14,-0.95,0.43,-2.49,-0.77,-1.73,-0.51,1012.83
3.384,-0.27,0.07,0.14,6.60,-3.75,-0.26,-0.77,-1.73,-0.51,1012.83
3.407,-0.08,-0.00,0.16,6.60,-3.75,-0.26,-0.77,-1.73,-0.51,1012.83
3.411,-0.08,-0.00,0.16,6.60,-3.75,-0.26,-0.77,-1.73,-0.51,1012.83
3.421,-0.07,-0.10,0.10,6.60,-3.75,-0.26,-0.77,-1.73,-0.51,1012.83
3.422,-0.07,-0.10,0.10,6.60,-3.75,-0.26,-0.49,0.06,0.13,1012.83
3.423,-0.07,-0.10,0.10,6.47,-3.70,-0.32,-0.49,0.06,0.13,1012.83
3.441,-0.25,-0.08,-0.02,6.47,-3.70,-0.32,-0.49,0.06,0.13,1012.83
3.462,-0.43,0.01,-0.05,6.47,-3.70,-0.32,-0.49,0.06,0.13,1012.83
3.464,-0.43,0.01,-0.05,6.47,-3.70,-0.32,-0.12,2.00,0.70,1012.83
3.466,-0.43,0.01,-0.05,7.62,-5.51,-0.46,-0.12,2.00,0.70,1012.83
3.471,-0.43,0.01,-0.05,7.62,-5.51,-0.46,-0.12,2.00,0.70,1012.82
3.482,-0.60,0.06,-0.04,7.62,-5.51,-0.46,-0.12,2.00,0.70,1012.82
3.518,-0.66,0.04,0.04,7.62,-5.51,-0.46,-0.12,2.00,0.70,1012.82
3.522,-0.66,0.04,0.04,7.62,-5.51,-0.46,0.17,2.31,1.46,1012.82
3.524,-0.66,0.04,0.04,3.16,-4.97,-0.52,0.17,2.31,1.46,1012.82
3.525,-0.67,0.02,0.05,3.16,-4.97,-0.52,0.17,2.31,1.46,1012.82
3.546,-0.67,0.02,0.05,3.16,-4.97,-0.52,0.17,2.31,1.46,1012.81
3.548,-0.67,0.07,0.05,3.16,-4.97,-0.52,0.17,2.31,1.46,1012.81
3.549,-0.67,0.07,0.05,3.16,-4.97,-0.52,0.42,1.25,2.36,1012.81
3.55,-0.67,0.07,0.05,2.59,-5.66,-0.00,0.42,1.25,2.36,1012.81
3.56,-0.69,0.09,0.08,2.59,-5.66,-0.00,0.42,1.25,2.36,1012.81
3.58,-0.67,0.11,0.13,2.59,-5.66,-0.00,0.42,1.25,2.36,1012.81
3.584,-0.67,0.11,0.13,2.59,-5.66,-0.00,0.69,0.12,2.93,1012.81
3.587,-0.67,0.11,0.13,0.71,-6.19,0.92,0.69,0.12,2.93,1012.81
3.591,-0.67,0.11,0.13,0.71,-6.19,0.92,0.69,0.12,2.93,1012.81
3.611,-0.56,0.17,0.22,0.71,-6.19,0.92,0.69,0.12,2.93,1012.81
3.62,-0.41,0.20,0.17,0.71,-6.19,0.92,0.69,0.12,2.93,1012.81
3.621,-0.41,0.20,0.17,0.71,-6.19,0.92,0.82,-0.49,3.01,1012.81
3.622,-0.41,0.20,0.17,1.13,-5.95,2.11,0.82,-0.49,3.01,1012.81
3.639,-0.39,0.16,0.13,1.13,-5.95,2.11,0.82,-0.49,3.01,1012.81
3.651,-0.39,0.16,0.13,1.13,-5.95,2.11,0.82,-0.49,3.01,1012.80
3.659,-0.44,0.03,0.21,1.13,-5.95,2.11,0.82,-0.49,3.01,1012.80
3.661,-0.44,0.03,0.21,1.13,-5.95,2.11,0.83,0.19,2.39,1012.80
3.663,-0.44,0.03,0.21,0.38,-6.40,2.37,0.83,0.19,2.39,1012.80
3.679,-1.60,0.87,0.05,0.38,-6.40,2.37,0.83,0.19,2.39,1012.80
3.699,-4.69,2.30,-0.78,0.38,-6.40,2.37,0.83,0.19,2.39,1012.80
3.702,-4.69,2.30,-0.78,0.38,-6.40,2.37,1.17,0.58,-0.57,1012.80
3.705,-4.69,2.30,-0.78,-2.01,-4.24,2.39,1.17,0.58,-0.57,1012.80
3.735,-4.69,2.30,-0.78,-2.01,-4.24,2.39,1.17,0.58,-0.57,1012.81
3.739,-2.19,1.29,0.29,-2.01,-4.24,2.39,1.17,0.58,-0.57,1012.81
3.744,2.01,0.43,-0.12,-2.01,-4.24,2.39,1.17,0.58,-0.57,1012.81
3.745,2.01,0.43,-0.12,-9.67,5.43,-0.94,1.17,0.58,-0.57,1012.81
3.746,2.01,0.43,-0.12,-9.67,5.43,-0.94,0.46,-1.06,-0.35,1012.81
3.772,1.00,0.58,-0.07,-9.67,5.43,-0.94,0.46,-1.06,-0.35,1012.81
3.777,1.00,0.58,-0.07,-9.67,5.43,-0.94,0.46,-1.06,-0.35,1012.79
3.781,-1.39,0.65,0.45,-9.67,5.43,-0.94,0.46,-1.06,-0.35,1012.79
3.782,-1.39,0.65,0.45,-9.67,5.43,-0.94,-0.04,-1.72,1.68,1012.79
3.783,-1.39,0.65,0.45,-9.97,4.94,-1.34,-0.04,-1.72,1.68,1012.79
3.802,-1.36,1.04,-0.01,-9.97,4.94,-1.34,-0.04,-1.72,1.68,1012.79
3.828,-0.82,0.78,-0.16,-9.97,4.94,-1.34,-0.04,-1.72,1.68,1012.79
3.83,-0.82,0.78,-0.16,-9.97,4.94,-1.34,0.15,1.09,-0.76,1012.79
3.831,-0.82,0.78,-0.16,0.40,-0.58,2.16,0.15,1.09,-0.76,1012.79
3.832,-0.82,0.78,-0.16,0.40,-0.58,2.16,0.15,1.09,-0.76,1012.80
3.836,-0.51,0.83,-0.02,0.40,-0.58,2.16,0.15,1.09,-0.76,1012.80
3.856,-0.50,0.96,-0.17,0.40,-0.58,2.16,0.15,1.09,-0.76,1012.80
3.857,-0.50,0.96,-0.17,0.40,-0.58,2.16,0.38,0.96,0.42,1012.80
3.858,-0.50,0.96,-0.17,-0.03,0.28,0.11,0.38,0.96,0.42,1012.80
3.877,-0.76,0.77,-0.09,-0.03,0.28,0.11,0.38,0.96,0.42,1012.80
3.89,-0.76,0.77,-0.09,-0.03,0.28,0.11,0.38,0.96,0.42,1012.79
3.899,-0.76,0.77,-0.09,-0.14,0.22,0.33,0.38,0.96,0.42,1012.79
3.903,-0.93,0.74,-0.08,-0.14,0.22,0.33,0.38,0.96,0.42,1012.79
3.905,-0.93,0.74,-0.08,-0.14,0.22,0.33,0.46,0.34,0.31,1012.79
3.916,-0.80,0.84,-0.20,-0.14,0.22,0.33,0.46,0.34,0.31,1012.79
3.951,-0.51,0.87,-0.20,-0.14,0.22,0.33,0.46,0.34,0.31,1012.79
3.954,-0.51,0.87,-0.20,-0.14,0.22,0.33,0.61,-0.15,0.54,1012.79
3.955,-0.51,0.87,-0.20,-2.40,-0.54,0.46,0.61,-0.15,0.54,1012.79
3.956,-0.51,0.87,-0.20,-2.40,-0.54,0.46,0.61,-0.15,0.54,1012.80
3.957,-0.27,0.89,-0.22,-2.40,-0.54,0.46,0.61,-0.15,0.54,1012.80
3.984,-0.32,0.88,-0.25,-2.40,-0.54,0.46,0.61,-0.15,0.54,1012.80
3.986,-0.32,0.88,-0.25,-2.40,-0.54,0.46,0.59,-0.13,0.79,1012.80
3.987,-0.32,0.88,-0.25,1.85,0.30,-0.41,0.59,-0.13,0.79,1012.80
3.996,-0.56,0.87,-0.23,1.85,0.30,-0.41,0.59,-0.13,0.79,1012.80
4.009,-0.56,0.87,-0.23,1.85,0.30,-0.41,0.59,-0.13,0.79,1012.79
4.021,-0.64,0.87,-0.23,1.85,0.30,-0.41,0.59,-0.13,0.79,1012.79
4.022,-0.64,0.87,-0.23,1.85,0.30,-0.41,0.40,0.35,0.37,1012.79
4.023,-0.64,0.87,-0.23,1.67,0.24,-0.20,0.40,0.35,0.37,1012.79
4.043,-0.55,0.85,-0.26,1.67,0.24,-0.20,0.40,0.35,0.37,1012.79
4.054,-0.40,0.87,-0.33,1.67,0.24,-0.20,0.40,0.35,0.37,1012.79
4.055,-0.40,0.87,-0.33,1.67,0.24,-0.20,0.36,0.20,0.43,1012.79
4.056,-0.40,0.87,-0.33,-0.62,-0.01,-0.16,0.36,0.20,0.43,1012.79
4.07,-0.40,0.87,-0.33,-0.62,-0.01,-0.16,0.36,0.20,0.43,1012.79
4.073,-0.30,0.91,-0.38,-0.62,-0.01,-0.16,0.36,0.20,0.43,1012.79
4.094,-0.28,0.93,-0.30,-0.62,-0.01,-0.16,0.36,0.20,0.43,1012.79
4.096,-0.28,0.93,-0.30,-0.62,-0.01,-0.16,0.33,-0.19,0.48,1012.79
4.098,-0.28,0.93,-0.30,1.74,0.34,-1.03,0.33,-0.19,0.48,1012.79
4.124,-0.24,0.91,-0.27,1.74,0.34,-1.03,0.33,-0.19,0.48,1012.79
4.144,-0.24,0.91,-0.27,1.74,0.34,-1.03,0.33,-0.19,0.48,1012.80
4.148,-0.24,0.91,-0.27,1.66,0.31,-0.99,0.33,-0.19,0.48,1012.80
4.151,-0.19,0.92,-0.28,1.66,0.31,-0.99,0.33,-0.19,0.48,1012.80
4.153,-0.19,0.92,-0.28,1.66,0.31,-0.99,0.18,-0.17,0.20,1012.80
4.154,-0.23,0.92,-0.30,1.66,0.31,-0.99,0.18,-0.17,0.20,1012.80
4.172,-0.36,0.93,-0.27,1.66,0.31,-0.99,0.18,-0.17,0.20,1012.80
4.173,-0.36,0.93,-0.27,1.66,0.31,-0.99,0.07,-0.04,-0.20,1012.80
4.174,-0.36,0.93,-0.27,2.77,0.49,-0.46,0.07,-0.04,-0.20,1012.80
4.19,-0.36,0.93,-0.27,2.77,0.49,-0.46,0.07,-0.04,-0.20,1012.80
4.192,-0.48,0.95,-0.29,2.77,0.49,-0.46,0.07,-0.04,-0.20,1012.80
4.214,-0.53,0.91,-0.27,2.77,0.49,-0.46,0.07,-0.04,-0.20,1012.80
4.218,-0.53,0.91,-0.27,2.77,0.49,-0.46,-0.05,0.14,-0.51,1012.80
4.22,-0.53,0.91,-0.27,0.57,0.70,-0.34,-0.05,0.14,-0.51,1012.80
4.236,-0.57,0.89,-0.27,0.57,0.70,-0.34,-0.05,0.14,-0.51,1012.80
4.249,-0.57,0.89,-0.27,0.57,0.70,-0.34,-0.05,0.14,-0.51,1012.80
4.251,-0.66,0.99,-0.21,0.57,0.70,-0.34,-0.05,0.14,-0.51,1012.80
4.251,-0.66,0.99,-0.21,0.57,0.70,-0.34,-0.10,0.09,-0.55,1012.80
4.252,-0.66,0.99,-0.21,0.73,0.78,-0.35,-0.10,0.09,-0.55,1012.80
4.27,-0.77,1.09,-0.19,0.73,0.78,-0.35,-0.10,0.09,-0.55,1012.80
4.291,-0.86,1.13,-0.11,0.73,0.78,-0.35,-0.10,0.09,-0.55,1012.80
4.298,-0.86,1.13,-0.11,0.73,0.78,-0.35,-0.11,0.40,-0.51,1012.80
4.299,-0.86,1.13,-0.11,-1.17,1.44,0.18,-0.11,0.40,-0.51,1012.80
4.312,-0.86,1.13,-0.11,-1.17,1.44,0.18,-0.11,0.40,-0.51,1012.80
4.314,-0.81,1.28,-0.15,-1.17,1.44,0.18,-0.11,0.40,-0.51,1012.80
4.33,-0.63,1.52,-0.36,-1.17,1.44,0.18,-0.11,0.40,-0.51,1012.80
4.332,-0.63,1.52,-0.36,-1.17,1.44,0.18,-0.01,0.41,-0.17,1012.80
4.334,-0.63,1.52,-0.36,-2.11,4.50,0.47,-0.01,0.41,-0.17,1012.80
4.353,-0.50,1.57,-0.49,-2.11,4.50,0.47,-0.01,0.41,-0.17,1012.80
4.368,-0.50,1.57,-0.49,-2.11,4.50,0.47,-0.01,0.41,-0.17,1012.80
4.373,-0.63,1.57,-0.52,-2.11,4.50,0.47,-0.01,0.41,-0.17,1012.80
4.373,-0.63,1.57,-0.52,-2.11,4.50,0.47,-0.01,-0.19,0.09,1012.80
4.374,-0.63,1.57,-0.52,-2.09,4.40,0.42,-0.01,-0.19,0.09,1012.80
4.389,-0.40,1.42,-0.52,-2.09,4.40,0.42,-0.01,-0.19,0.09,1012.80
4.409,0.15,1.26,-0.72,-2.09,4.40,0.42,-0.01,-0.19,0.09,1012.80
4.413,0.15,1.26,-0.72,-2.09,4.40,0.42,-0.32,-0.90,0.50,1012.80
4.414,0.15,1.26,-0.72,0.34,6.27,-2.85,-0.32,-0.90,0.50,1012.80
4.432,0.15,1.26,-0.72,0.34,6.27,-2.85,-0.32,-0.90,0.50,1012.80
4.434,0.49,1.36,-0.48,0.34,6.27,-2.85,-0.32,-0.90,0.50,1012.80
4.45,0.60,1.25,0.03,0.34,6.27,-2.85,-0.32,-0.90,0.50,1012.80
4.451,0.60,1.25,0.03,0.34,6.27,-2.85,-1.03,-1.37,0.54,1012.80
4.452,0.60,1.25,0.03,9.12,3.76,-2.26,-1.03,-1.37,0.54,1012.80
4.469,0.20,1.54,-0.58,9.12,3.76,-2.26,-1.03,-1.37,0.54,1012.80
4.489,-0.68,1.42,-0.44,9.12,3.76,-2.26,-1.03,-1.37,0.54,1012.80
4.492,-0.68,1.42,-0.44,9.12,3.76,-2.26,-1.29,0.49,-2.21,1012.80
4.494,-0.68,1.42,-0.44,9.69,4.10,-2.56,-1.29,0.49,-2.21,1012.80
4.497,-0.68,1.42,-0.44,9.69,4.10,-2.56,-1.29,0.49,-2.21,1012.80
4.525,-1.59,1.10,-0.33,9.69,4.10,-2.56,-1.29,0.49,-2.21,1012.80
4.528,-1.78,0.99,-0.01,9.69,4.10,-2.56,-1.29,0.49,-2.21,1012.80
4.529,-1.78,0.99,-0.01,9.69,4.10,-2.56,-1.18,0.93,-4.77,1012.80
4.558,-1.78,0.99,-0.01,0.36,5.74,-3.22,-1.18,0.93,-4.77,1012.80
4.56,-1.34,1.00,-0.15,0.36,5.74,-3.22,-1.18,0.93,-4.77,1012.80
4.562,-1.34,1.00,-0.15,0.36,5.74,-3.22,-1.18,0.93,-4.77,1012.79
4.567,-1.16,0.92,-0.49,0.36,5.74,-3.22,-1.18,0.93,-4.77,1012.79
4.569,-1.16,0.92,-0.49,0.36,5.74,-3.22,-0.50,-0.42,-3.74,1012.79
4.569,-1.16,0.92,-0.49,-5.73,3.09,-1.21,-0.50,-0.42,-3.74,1012.79
4.587,-1.22,0.79,-0.38,-5.73,3.09,-1.21,-0.50,-0.42,-3.74,1012.79
4.612,-1.09,0.58,-0.11,-5.73,3.09,-1.21,-0.50,-0.42,-3.74,1012.79
4.615,-1.09,0.58,-0.11,-5.73,3.09,-1.21,-0.40,-1.79,-2.51,1012.79
4.617,-1.09,0.58,-0.11,-5.00,3.86,-1.89,-0.40,-1.79,-2.51,1012.79
4.618,-1.09,0.58,-0.11,-5.00,3.86,-1.89,-0.40,-1.79,-2.51,1012.78
4.626,-0.68,0.39,-0.00,-5.00,3.86,-1.89,-0.40,-1.79,-2.51,1012.78
4.647,-0.26,0.25,0.12,-5.00,3.86,-1.89,-0.40,-1.79,-2.51,1012.78
4.649,-0.26,0.25,0.12,-5.00,3.86,-1.89,-0.96,-2.05,-1.27,1012.78
4.65,-0.26,0.25,0.12,-0.52,0.54,-2.25,-0.96,-2.05,-1.27,1012.78
4.669,-0.12,0.09,0.25,-0.52,0.54,-2.25,-0.96,-2.05,-1.27,1012.78
4.673,-0.12,0.09,0.25,-0.52,0.54,-2.25,-0.96,-2.05,-1.27,1012.77
4.686,-0.06,-0.06,0.25,-0.52,0.54,-2.25,-0.96,-2.05,-1.27,1012.77
4.69,-0.06,-0.06,0.25,-0.52,0.54,-2.25,-0.88,-1.41,-0.13,1012.77
4.692,-0.06,-0.06,0.25,7.65,-4.14,0.68,-0.88,-1.41,-0.13,1012.77
4.715,-0.09,-0.16,0.13,7.65,-4.14,0.68,-0.88,-1.41,-0.13,1012.77
4.726,-0.26,-0.10,0.09,7.65,-4.14,0.68,-0.88,-1.41,-0.13,1012.77
4.727,-0.26,-0.10,0.09,7.65,-4.14,0.68,-0.40,0.28,0.58,1012.77
4.728,-0.26,-0.10,0.09,7.42,-4.25,0.69,-0.40,0.28,0.58,1012.77
4.728,-0.26,-0.10,0.09,7.42,-4.25,0.69,-0.40,0.28,0.58,1012.75
4.746,-0.40,-0.01,0.16,7.42,-4.25,0.69,-0.40,0.28,0.58,1012.75
4.766,-0.39,-0.02,0.11,7.42,-4.25,0.69,-0.40,0.28,0.58,1012.75
4.77,-0.39,-0.02,0.11,7.42,-4.25,0.69,-0.05,1.12,1.45,1012.75
4.772,-0.39,-0.02,0.11,6.05,-6.46,0.23,-0.05,1.12,1.45,1012.75
4.785,-0.38,-0.08,0.09,6.05,-6.46,0.23,-0.05,1.12,1.45,1012.75
4.789,-0.38,-0.08,0.09,6.05,-6.46,0.23,-0.05,1.12,1.45,1012.74
4.806,-0.48,-0.07,0.13,6.05,-6.46,0.23,-0.05,1.12,1.45,1012.74
4.809,-0.48,-0.07,0.13,6.05,-6.46,0.23,0.23,0.98,2.31,1012.74
4.811,-0.48,-0.07,0.13,3.84,-6.79,0.43,0.23,0.98,2.31,1012.74
4.83,-0.55,-0.05,0.15,3.84,-6.79,0.43,0.23,0.98,2.31,1012.74
4.844,-0.53,-0.09,0.13,3.84,-6.79,0.43,0.23,0.98,2.31,1012.74
4.846,-0.53,-0.09,0.13,3.84,-6.79,0.43,0.53,0.46,2.76,1012.74
4.847,-0.53,-0.09,0.13,3.08,-7.50,0.70,0.53,0.46,2.76,1012.74
4.849,-0.53,-0.09,0.13,3.08,-7.50,0.70,0.53,0.46,2.76,1012.73
4.864,-0.54,-0.12,0.15,3.08,-7.50,0.70,0.53,0.46,2.76,1012.73
4.884,-0.59,-0.06,0.17,3.08,-7.50,0.70,0.53,0.46,2.76,1012.73
4.886,-0.59,-0.06,0.17,3.08,-7.50,0.70,0.83,-0.10,2.86,1012.73
4.888,-0.59,-0.06,0.17,1.01,-8.40,1.24,0.83,-0.10,2.86,1012.73
4.903,-0.46,-0.01,0.17,1.01,-8.40,1.24,0.83,-0.10,2.86,1012.73
4.909,-0.46,-0.01,0.17,1.01,-8.40,1.24,0.83,-0.10,2.86,1012.73
4.94,-0.28,-0.09,0.12,1.01,-8.40,1.24,0.83,-0.10,2.86,1012.73
4.944,-0.28,-0.09,0.12,1.01,-8.40,1.24,1.09,-0.18,2.62,1012.73
4.946,-0.28,-0.09,0.12,1.14,-8.54,1.63,1.09,-0.18,2.62,1012.73
4.97,-0.43,-0.00,0.33,1.14,-8.54,1.63,1.09,-0.18,2.62,1012.73
4.971,-2.87,3.13,0.12,1.14,-8.54,1.63,1.09,-0.18,2.62,1012.73
4.972,-2.87,3.13,0.12,1.14,-8.54,1.63,1.51,0.28,0.91,1012.73
4.973,-2.87,3.13,0.12,0.83,-8.57,2.14,1.51,0.28,0.91,1012.73
4.974,-2.87,3.13,0.12,0.83,-8.57,2.14,1.51,0.28,0.91,1012.74
4.982,-4.48,2.60,-0.81,0.83,-8.57,2.14,1.51,0.28,0.91,1012.74
5.001,-0.66,-0.14,-0.29,0.83,-8.57,2.14,1.51,0.28,0.91,1012.74
5.002,-0.66,-0.14,-0.29,0.83,-8.57,2.14,0.99,0.02,-3.20,1012.74
5.003,-0.66,-0.14,-0.29,-18.95,11.21,-0.26,0.99,0.02,-3.20,1012.74
5.022,2.45,-0.17,-0.18,-18.95,11.21,-0.26,0.99,0.02,-3.20,1012.74
5.039,2.45,-0.17,-0.18,-18.95,11.21,-0.26,0.99,0.02,-3.20,1012.74
5.041,0.37,0.76,0.88,-18.95,11.21,-0.26,0.99,0.02,-3.20,1012.74
5.043,0.37,0.76,0.88,-18.95,11.21,-0.26,-0.19,-1.21,2.85,1012.74
5.044,0.37,0.76,0.88,12.47,-6.56,1.92,-0.19,-1.21,2.85,1012.74
5.061,-2.12,1.25,-0.26,12.47,-6.56,1.92,-0.19,-1.21,2.85,1012.74
5.086,-1.50,0.85,-0.42,12.47,-6.56,1.92,-0.19,-1.21,2.85,1012.74
5.089,-1.50,0.85,-0.42,12.47,-6.56,1.92,0.38,0.59,-1.06,1012.74
5.091,-1.50,0.85,-0.42,12.57,-6.21,2.13,0.38,0.59,-1.06,1012.74
5.094,-1.50,0.85,-0.42,12.57,-6.21,2.13,0.38,0.59,-1.06,1012.74
5.102,-0.57,0.54,0.19,12.57,-6.21,2.13,0.38,0.59,-1.06,1012.74
5.137,-0.58,0.95,-0.15,12.57,-6.21,2.13,0.38,0.59,-1.06,1012.74
5.141,-0.58,0.95,-0.15,12.57,-6.21,2.13,0.22,1.20,0.09,1012.74
5.144,-0.58,0.95,-0.15,-8.10,0.89,-0.49,0.22,1.20,0.09,1012.74
5.144,-0.44,0.95,-0.24,-8.10,0.89,-0.49,0.22,1.20,0.09,1012.74
5.169,-0.44,0.95,-0.24,-8.10,0.89,-0.49,0.22,1.20,0.09,1012.74
5.171,-0.62,0.71,0.05,-8.10,0.89,-0.49,0.22,1.20,0.09,1012.74
5.172,-0.62,0.71,0.05,-8.10,0.89,-0.49,0.43,0.25,0.60,1012.74
5.173,-0.62,0.71,0.05,0.02,0.68,0.17,0.43,0.25,0.60,1012.74
5.181,-0.97,0.76,-0.09,0.02,0.68,0.17,0.43,0.25,0.60,1012.74
5.2,-0.85,0.84,-0.20,0.02,0.68,0.17,0.43,0.25,0.60,1012.74
5.203,-0.85,0.84,-0.20,0.02,0.68,0.17,0.53,0.05,0.23,1012.74
5.205,-0.85,0.84,-0.20,-0.05,0.65,0.34,0.53,0.05,0.23,1012.74
5.209,-0.85,0.84,-0.20,-0.05,0.65,0.34,0.53,0.05,0.23,1012.73
5.229,-0.48,0.86,-0.22,-0.05,0.65,0.34,0.53,0.05,0.23,1012.73
5.239,-0.30,0.87,-0.28,-0.05,0.65,0.34,0.53,0.05,0.23,1012.73
5.24,-0.30,0.87,-0.28,-0.05,0.65,0.34,0.62,-0.06,0.78,1012.73
5.241,-0.30,0.87,-0.28,-2.43,0.06,-0.05,0.62,-0.06,0.78,1012.73
5.26,-0.36,0.89,-0.28,-2.43,0.06,-0.05,0.62,-0.06,0.78,1012.73
5.269,-0.36,0.89,-0.28,-2.43,0.06,-0.05,0.62,-0.06,0.78,1012.73
5.281,-0.56,0.87,-0.30,-2.43,0.06,-0.05,0.62,-0.06,0.78,1012.73
5.284,-0.56,0.87,-0.30,-2.43,0.06,-0.05,0.47,0.05,0.58,1012.73
5.285,-0.56,0.87,-0.30,0.90,0.51,-1.01,0.47,0.05,0.58,1012.73
5.298,-0.63,0.84,-0.28,0.90,0.51,-1.01,0.47,0.05,0.58,1012.73
5.328,-0.51,0.86,-0.31,0.90,0.51,-1.01,0.47,0.05,0.58,1012.73
5.332,-0.51,0.86,-0.31,0.90,0.51,-1.01,0.28,0.21,0.39,1012.73
5.334,-0.51,0.86,-0.31,0.75,0.45,-0.86,0.28,0.21,0.39,1012.73
5.336,-0.51,0.86,-0.31,0.75,0.45,-0.86,0.28,0.21,0.39,1012.72
5.339,-0.39,0.90,-0.27,0.75,0.45,-0.86,0.28,0.21,0.39,1012.72
5.369,-0.39,0.90,-0.27,-0.40,0.25,-0.80,0.28,0.21,0.39,1012.72
5.371,-0.36,0.89,-0.20,-0.40,0.25,-0.80,0.28,0.21,0.39,1012.72
5.371,-0.36,0.89,-0.20,-0.40,0.25,-0.80,0.22,-0.06,0.53,1012.72
5.377,-0.31,0.90,-0.26,-0.40,0.25,-0.80,0.22,-0.06,0.53,1012.72
5.388,-0.31,0.90,-0.26,-0.40,0.25,-0.80,0.22,-0.06,0.53,1012.73
5.397,-0.20,0.92,-0.33,-0.40,0.25,-0.80,0.22,-0.06,0.53,1012.73
5.398,-0.20,0.92,-0.33,1.62,0.51,-0.50,0.22,-0.06,0.53,1012.73
5.399,-0.20,0.92,-0.33,1.62,0.51,-0.50,0.20,-0.17,0.37,1012.73
5.427,-0.21,0.93,-0.33,1.62,0.51,-0.50,0.20,-0.17,0.37,1012.73
5.438,-0.34,0.93,-0.33,1.62,0.51,-0.50,0.20,-0.17,0.37,1012.73
5.439,-0.34,0.93,-0.33,1.62,0.51,-0.50,0.09,-0.10,0.04,1012.73
5.441,-0.34,0.93,-0.33,1.59,0.51,-0.48,0.09,-0.10,0.04,1012.73
5.452,-0.34,0.93,-0.33,1.59,0.51,-0.48,0.09,-0.10,0.04,1012.73
5.456,-0.38,0.93,-0.34,1.59,0.51,-0.48,0.09,-0.10,0.04,1012.73
5.476,-0.40,0.94,-0.30,1.59,0.51,-0.48,0.09,-0.10,0.04,1012.73
5.478,-0.40,0.94,-0.30,1.59,0.51,-0.48,-0.10,0.04,-0.30,1012.73
5.479,-0.40,0.94,-0.30,1.44,0.81,-1.18,-0.10,0.04,-0.30,1012.73
5.509,-0.42,0.94,-0.26,1.44,0.81,-1.18,-0.10,0.04,-0.30,1012.73
5.511,-0.42,0.94,-0.26,1.44,0.81,-1.18,-0.10,0.04,-0.30,1012.74
5.538,-0.43,0.91,-0.33,1.44,0.81,-1.18,-0.10,0.04,-0.30,1012.74
5.539,-0.43,0.91,-0.33,1.44,0.81,-1.18,-0.16,-0.09,-0.45,1012.74
5.54,-0.43,0.91,-0.33,0.56,0.89,-0.86,-0.16,-0.09,-0.45,1012.74
5.54,-0.55,0.88,-0.22,0.56,0.89,-0.86,-0.16,-0.09,-0.45,1012.74
5.555,-0.75,0.95,-0.27,0.56,0.89,-0.86,-0.16,-0.09,-0.45,1012.74
5.556,-0.75,0.95,-0.27,0.56,0.89,-0.86,-0.20,0.13,-0.58,1012.74
5.557,-0.75,0.95,-0.27,0.72,0.97,-0.88,-0.20,0.13,-0.58,1012.74
5.567,-0.75,0.95,-0.27,0.72,0.97,-0.88,-0.20,0.13,-0.58,1012.75
5.574,-0.86,1.07,-0.21,0.72,0.97,-0.88,-0.20,0.13,-0.58,1012.75
5.594,-0.86,1.22,-0.16,0.72,0.97,-0.88,-0.20,0.13,-0.58,1012.75
5.595,-0.86,1.22,-0.16,0.72,0.97,-0.88,-0.22,0.33,-0.45,1012.75
5.596,-0.86,1.22,-0.16,-2.10,1.36,-0.29,-0.22,0.33,-0.45,1012.75
5.615,-0.64,1.52,-0.39,-2.10,1.36,-0.29,-0.22,0.33,-0.45,1012.75
5.628,-0.64,1.52,-0.39,-2.10,1.36,-0.29,-0.22,0.33,-0.45,1012.75
5.634,-0.50,1.51,-0.46,-2.10,1.36,-0.29,-0.22,0.33,-0.45,1012.75
5.635,-0.50,1.51,-0.46,-2.10,1.36,-0.29,-0.27,-0.07,-0.08,1012.75
5.636,-0.50,1.51,-0.46,-1.50,5.67,-1.39,-0.27,-0.07,-0.08,1012.75
5.654,-0.59,1.48,-0.27,-1.50,5.67,-1.39,-0.27,-0.07,-0.08,1012.75
5.675,-0.47,1.87,-0.34,-1.50,5.67,-1.39,-0.27,-0.07,-0.08,1012.75
5.678,-0.47,1.87,-0.34,-1.50,5.67,-1.39,-0.41,-0.50,0.08,1012.75
5.679,-0.47,1.87,-0.34,-1.47,5.53,-1.59,-0.41,-0.50,0.08,1012.75
5.689,-0.47,1.87,-0.34,-1.47,5.53,-1.59,-0.41,-0.50,0.08,1012.75
5.694,0.01,1.57,-0.53,-1.47,5.53,-1.59,-0.41,-0.50,0.08,1012.75
5.737,0.26,1.30,-0.62,-1.47,5.53,-1.59,-0.41,-0.50,0.08,1012.75
5.741,0.26,1.30,-0.62,-1.47,5.53,-1.59,-0.63,-0.99,0.54,1012.75
5.743,0.26,1.30,-0.62,1.49,7.46,-2.35,-0.63,-0.99,0.54,1012.75
5.744,0.57,1.08,0.05,1.49,7.46,-2.35,-0.63,-0.99,0.54,1012.75
5.771,0.57,1.08,0.05,1.49,7.46,-2.35,-0.63,-0.99,0.54,1012.74
5.775,0.17,1.28,-0.13,1.49,7.46,-2.35,-0.63,-0.99,0.54,1012.74
5.776,0.17,1.28,-0.13,1.49,7.46,-2.35,-1.43,-0.11,-0.19,1012.74
5.778,0.17,1.28,-0.13,8.11,3.28,-1.41,-1.43,-0.11,-0.19,1012.74
5.78,-0.72,1.55,-0.54,8.11,3.28,-1.41,-1.43,-0.11,-0.19,1012.74
5.792,-1.31,1.04,-0.15,8.11,3.28,-1.41,-1.43,-0.11,-0.19,1012.74
5.794,-1.31,1.04,-0.15,9.04,3.90,-1.60,-1.43,-0.11,-0.19,1012.74
5.795,-1.31,1.04,-0.15,9.04,3.90,-1.60,-1.64,1.54,-3.40,1012.74
5.812,-1.31,1.04,-0.15,9.04,3.90,-1.60,-1.64,1.54,-3.40,1012.75
5.816,-1.32,0.83,0.00,9.04,3.90,-1.60,-1.64,1.54,-3.40,1012.75
5.84,-1.31,0.88,-0.06,9.04,3.90,-1.60,-1.64,1.54,-3.40,1012.75
5.842,-1.31,0.88,-0.06,9.04,3.90,-1.60,-1.46,1.22,-4.42,1012.75
5.843,-1.31,0.88,-0.06,-3.82,4.07,-1.67,-1.46,1.22,-4.42,1012.75
5.851,-1.39,0.84,-0.06,-3.82,4.07,-1.67,-1.46,1.22,-4.42,1012.75
5.868,-1.39,0.84,-0.06,-3.82,4.07,-1.67,-1.46,1.22,-4.42,1012.74
5.871,-1.34,0.77,-0.17,-3.82,4.07,-1.67,-1.46,1.22,-4.42,1012.74
5.871,-1.34,0.77,-0.17,-3.82,4.07,-1.67,-0.78,-0.66,-3.55,1012.74
5.873,-1.34,0.77,-0.17,-5.06,2.10,-0.77,-0.78,-0.66,-3.55,1012.74
5.891,-1.12,0.73,-0.15,-5.06,2.10,-0.77,-0.78,-0.66,-3.55,1012.74
5.911,-0.81,0.57,-0.10,-5.06,2.10,-0.77,-0.78,-0.66,-3.55,1012.74
5.914,-0.81,0.57,-0.10,-5.06,2.10,-0.77,-0.61,-1.92,-2.36,1012.74
5.917,-0.81,0.57,-0.10,-4.47,2.84,-1.52,-0.61,-1.92,-2.36,1012.74
5.945,-0.81,0.57,-0.10,-4.47,2.84,-1.52,-0.61,-1.92,-2.36,1012.73
5.947,-0.49,0.40,-0.03,-4.47,2.84,-1.52,-0.61,-1.92,-2.36,1012.73
5.951,-0.26,0.27,0.10,-4.47,2.84,-1.52,-0.61,-1.92,-2.36,1012.73
5.952,-0.26,0.27,0.10,-4.47,2.84,-1.52,-0.78,-2.02,-1.17,1012.73
5.953,-0.26,0.27,0.10,0.97,0.69,-2.33,-0.78,-2.02,-1.17,1012.73
5.973,-0.24,0.14,0.17,0.97,0.69,-2.33,-0.78,-2.02,-1.17,1012.73
5.987,-0.24,0.14,0.17,0.97,0.69,-2.33,-0.78,-2.02,-1.17,1012.72
5.989,-0.26,0.02,0.19,0.97,0.69,-2.33,-0.78,-2.02,-1.17,1012.72
5.99,-0.26,0.02,0.19,0.97,0.69,-2.33,-0.64,-0.97,-0.45,1012.72
5.99,-0.26,0.02,0.19,6.29,-3.23,-0.32,-0.64,-0.97,-0.45,1012.72
6.009,-0.26,-0.02,0.13,6.29,-3.23,-0.32,-0.64,-0.97,-0.45,1012.72
6.036,-0.26,-0.02,0.13,6.17,-3.26,-0.16,-0.64,-0.97,-0.45,1012.72
6.039,-0.32,-0.01,0.11,6.17,-3.26,-0.16,-0.64,-0.97,-0.45,1012.72
6.04,-0.32,-0.01,0.11,6.17,-3.26,-0.16,-0.14,0.53,0.28,1012.72
6.052,-0.32,-0.01,0.11,6.17,-3.26,-0.16,-0.14,0.53,0.28,1012.71
6.054,-0.47,0.02,0.09,6.17,-3.26,-0.16,-0.14,0.53,0.28,1012.71
6.069,-0.48,0.02,0.07,6.17,-3.26,-0.16,-0.14,0.53,0.28,1012.71
6.071,-0.48,0.02,0.07,6.17,-3.26,-0.16,0.35,1.04,1.20,1012.71
6.072,-0.48,0.02,0.07,4.99,-5.06,-0.17,0.35,1.04,1.20,1012.71
6.09,-0.47,0.00,0.12,4.99,-5.06,-0.17,0.35,1.04,1.20,1012.71
6.108,-0.47,0.00,0.12,4.99,-5.06,-0.17,0.35,1.04,1.20,1012.70
6.11,-0.45,-0.00,0.20,4.99,-5.06,-0.17,0.35,1.04,1.20,1012.70
6.111,-0.45,-0.00,0.20,4.99,-5.06,-0.17,0.69,0.77,2.13,1012.70
6.112,-0.45,-0.00,0.20,3.35,-5.55,0.39,0.69,0.77,2.13,1012.70
6.129,-0.45,-0.00,0.15,3.35,-5.55,0.39,0.69,0.77,2.13,1012.70
6.153,-0.51,0.03,0.10,3.35,-5.55,0.39,0.69,0.77,2.13,1012.70
6.157,-0.51,0.03,0.10,3.35,-5.55,0.39,1.06,0.37,2.71,1012.70
6.16,-0.51,0.03,0.10,2.66,-6.29,0.74,1.06,0.37,2.71,1012.70
6.168,-0.51,0.03,0.10,2.66,-6.29,0.74,1.06,0.37,2.71,1012.70
6.171,-0.59,0.05,0.10,2.66,-6.29,0.74,1.06,0.37,2.71,1012.70
6.188,-0.53,0.04,0.12,2.66,-6.29,0.74,1.06,0.37,2.71,1012.70
6.191,-0.53,0.04,0.12,2.66,-6.29,0.74,1.38,0.06,2.93,1012.70
6.193,-0.53,0.04,0.12,1.38,-6.83,1.00,1.38,0.06,2.93,1012.70
6.208,-0.41,-0.02,0.16,1.38,-6.83,1.00,1.38,0.06,2.93,1012.70
6.232,-0.24,-0.17,0.15,1.38,-6.83,1.00,1.38,0.06,2.93,1012.70
6.235,-0.24,-0.17,0.15,1.38,-6.83,1.00,1.56,-0.24,2.94,1012.70
6.236,-0.24,-0.17,0.15,1.38,-6.83,1.00,1.56,-0.24,2.94,1012.68
6.237,-0.24,-0.17,0.15,1.71,-8.10,1.66,1.56,-0.24,2.94,1012.68
6.271,-0.21,-0.57,0.32,1.71,-8.10,1.66,1.56,-0.24,2.94,1012.68
6.275,-1.86,1.75,1.10,1.71,-8.10,1.66,1.56,-0.24,2.94,1012.68
6.277,-1.86,1.75,1.10,1.71,-8.10,1.66,1.70,-0.27,2.01,1012.68
6.279,-1.86,1.75,1.10,1.08,-8.34,2.09,1.70,-0.27,2.01,1012.68
6.286,-4.21,3.00,-0.77,1.08,-8.34,2.09,1.70,-0.27,2.01,1012.68
6.288,-4.21,3.00,-0.77,1.08,-8.34,2.09,1.70,-0.27,2.01,1012.69
6.308,-4.21,3.00,-0.77,-14.14,6.66,3.05,1.70,-0.27,2.01,1012.69
6.311,-2.34,0.76,-0.64,-14.14,6.66,3.05,1.70,-0.27,2.01,1012.69
6.312,-2.34,0.76,-0.64,-14.14,6.66,3.05,1.16,-0.13,-4.21,1012.69
6.331,1.15,-0.14,-0.52,-14.14,6.66,3.05,1.16,-0.13,-4.21,1012.69
6.347,1.11,0.76,0.96,-14.14,6.66,3.05,1.16,-0.13,-4.21,1012.69
6.35,1.11,0.76,0.96,-14.14,6.66,3.05,-0.20,-0.54,1.69,1012.69
6.362,1.11,0.76,0.96,5.57,-2.87,0.06,-0.20,-0.54,1.69,1012.69
6.364,1.11,0.76,0.96,5.57,-2.87,0.06,-0.20,-0.54,1.69,1012.69
6.369,-1.39,0.94,0.15,5.57,-2.87,0.06,-0.20,-0.54,1.69,1012.69
6.384,-1.85,0.69,-0.77,5.57,-2.87,0.06,-0.20,-0.54,1.69,1012.69
6.385,-1.85,0.69,-0.77,5.57,-2.87,0.06,0.33,0.11,-0.48,1012.69
6.385,-1.85,0.69,-0.77,5.61,-2.70,0.18,0.33,0.11,-0.48,1012.69
6.404,-0.87,0.61,0.20,5.61,-2.70,0.18,0.33,0.11,-0.48,1012.69
6.407,-0.87,0.61,0.20,5.61,-2.70,0.18,0.33,0.11,-0.48,1012.70
6.426,-0.61,0.79,-0.14,5.61,-2.70,0.18,0.33,0.11,-0.48,1012.70
6.427,-0.61,0.79,-0.14,5.61,-2.70,0.18,0.32,0.44,-0.49,1012.70
6.428,-0.61,0.79,-0.14,-7.30,0.25,-0.32,0.32,0.44,-0.49,1012.70
6.444,-0.54,0.88,-0.27,-7.30,0.25,-0.32,0.32,0.44,-0.49,1012.70
6.465,-0.57,0.76,-0.02,-7.30,0.25,-0.32,0.32,0.44,-0.49,1012.70
6.466,-0.57,0.76,-0.02,-7.30,0.25,-0.32,0.29,0.33,0.55,1012.70
6.467,-0.57,0.76,-0.02,0.29,0.70,-0.19,0.29,0.33,0.55,1012.70
6.467,-0.57,0.76,-0.02,0.29,0.70,-0.19,0.29,0.33,0.55,1012.71
6.486,-0.84,0.70,-0.08,0.29,0.70,-0.19,0.29,0.33,0.55,1012.71
6.505,-0.89,0.76,-0.13,0.29,0.70,-0.19,0.29,0.33,0.55,1012.71
6.507,-0.89,0.76,-0.13,0.29,0.70,-0.19,0.34,0.15,0.06,1012.71
6.509,-0.89,0.76,-0.13,0.26,0.69,-0.05,0.34,0.15,0.06,1012.71
6.533,-0.68,0.81,-0.19,0.26,0.69,-0.05,0.34,0.15,0.06,1012.71
6.536,-0.68,0.81,-0.19,0.26,0.69,-0.05,0.34,0.15,0.06,1012.71
6.547,-0.68,0.81,-0.19,-2.07,0.13,0.23,0.34,0.15,0.06,1012.71
6.549,-0.57,0.80,-0.20,-2.07,0.13,0.23,0.34,0.15,0.06,1012.71
6.549,-0.57,0.80,-0.20,-2.07,0.13,0.23,0.47,0.10,0.38,1012.71
6.568,-0.59,0.82,-0.22,-2.07,0.13,0.23,0.47,0.10,0.38,1012.71
6.584,-0.65,0.82,-0.30,-2.07,0.13,0.23,0.47,0.10,0.38,1012.71
6.586,-0.65,0.82,-0.30,-2.07,0.13,0.23,0.44,0.02,0.40,1012.71
6.587,-0.65,0.82,-0.30,-0.18,0.59,-0.72,0.44,0.02,0.40,1012.71
6.588,-0.65,0.82,-0.30,-0.18,0.59,-0.72,0.44,0.02,0.40,1012.71
6.603,-0.69,0.82,-0.27,-0.18,0.59,-0.72,0.44,0.02,0.40,1012.71
6.629,-0.67,0.84,-0.26,-0.18,0.59,-0.72,0.44,0.02,0.40,1012.71
6.63,-0.67,0.84,-0.26,-0.18,0.59,-0.72,0.26,0.18,0.31,1012.71
6.631,-0.67,0.84,-0.26,-0.28,0.53,-0.60,0.26,0.18,0.31,1012.71
6.641,-0.61,0.87,-0.27,-0.28,0.53,-0.60,0.26,0.18,0.31,1012.71
6.657,-0.61,0.87,-0.27,-0.28,0.53,-0.60,0.26,0.18,0.31,1012.71
6.661,-0.52,0.86,-0.24,-0.28,0.53,-0.60,0.26,0.18,0.31,1012.71
6.662,-0.52,0.86,-0.24,-0.28,0.53,-0.60,0.15,0.08,0.39,1012.71
6.664,-0.52,0.86,-0.24,-0.91,0.77,-0.76,0.15,0.08,0.39,1012.71
6.683,-0.42,0.84,-0.22,-0.91,0.77,-0.76,0.15,0.08,0.39,1012.71
6.703,-0.42,0.87,-0.23,-0.91,0.77,-0.76,0.15,0.08,0.39,1012.71
6.705,-0.42,0.87,-0.23,-0.91,0.77,-0.76,0.08,-0.01,0.32,1012.71
6.707,-0.42,0.87,-0.23,0.95,0.80,-0.39,0.08,-0.01,0.32,1012.71
6.708,-0.42,0.87,-0.23,0.95,0.80,-0.39,0.08,-0.01,0.32,1012.70
6.734,-0.49,0.89,-0.22,0.95,0.80,-0.39,0.08,-0.01,0.32,1012.70
6.743,-0.49,0.88,-0.26,0.95,0.80,-0.39,0.08,-0.01,0.32,1012.70
6.745,-0.49,0.88,-0.26,0.95,0.80,-0.39,0.05,-0.07,0.00,1012.70
6.746,-0.49,0.88,-0.26,0.94,0.79,-0.38,0.05,-0.07,0.00,1012.70
6.775,-0.48,0.83,-0.25,0.94,0.79,-0.38,0.05,-0.07,0.00,1012.70
6.782,-0.48,0.83,-0.25,0.94,0.79,-0.38,0.05,-0.07,0.00,1012.71
6.784,-0.53,0.80,-0.26,0.94,0.79,-0.38,0.05,-0.07,0.00,1012.71
6.787,-0.53,0.80,-0.26,0.94,0.79,-0.38,-0.04,-0.05,-0.21,1012.71
6.789,-0.53,0.80,-0.26,0.67,0.93,-0.53,-0.04,-0.05,-0.21,1012.71
6.8,-0.63,0.86,-0.24,0.67,0.93,-0.53,-0.04,-0.05,-0.21,1012.71
6.822,-0.75,0.91,-0.31,0.67,0.93,-0.53,-0.04,-0.05,-0.21,1012.71
6.824,-0.75,0.91,-0.31,0.67,0.93,-0.53,-0.15,0.13,-0.35,1012.71
6.825,-0.75,0.91,-0.31,-0.69,0.86,-0.76,-0.15,0.13,-0.35,1012.71
6.829,-0.75,0.91,-0.31,-0.69,0.86,-0.76,-0.15,0.13,-0.35,1012.71
6.857,-0.85,0.94,-0.31,-0.69,0.86,-0.76,-0.15,0.13,-0.35,1012.71
6.86,-0.92,1.05,-0.23,-0.69,0.86,-0.76,-0.15,0.13,-0.35,1012.71
6.861,-0.92,1.05,-0.23,-0.69,0.86,-0.76,-0.25,0.15,-0.29,1012.71
6.862,-0.92,1.05,-0.23,-0.60,0.89,-0.79,-0.25,0.15,-0.29,1012.71
6.879,-0.94,1.21,-0.14,-0.60,0.89,-0.79,-0.25,0.15,-0.29,1012.71
6.887,-0.94,1.21,-0.14,-0.60,0.89,-0.79,-0.25,0.15,-0.29,1012.72
6.899,-0.81,1.23,-0.22,-0.60,0.89,-0.79,-0.25,0.15,-0.29,1012.72
6.901,-0.81,1.23,-0.22,-3.18,2.89,-0.46,-0.25,0.15,-0.29,1012.72
6.902,-0.81,1.23,-0.22,-3.18,2.89,-0.46,-0.28,0.08,0.07,1012.72
6.918,-0.67,1.28,-0.40,-3.18,2.89,-0.46,-0.28,0.08,0.07,1012.72
6.959,-0.67,1.28,-0.40,-1.42,6.18,-1.54,-0.28,0.08,0.07,1012.72
6.964,-0.66,1.77,-0.33,-1.42,6.18,-1.54,-0.28,0.08,0.07,1012.72
6.965,-0.66,1.77,-0.33,-1.42,6.18,-1.54,-0.22,-0.86,0.58,1012.72
6.966,-0.66,1.77,-0.33,-1.42,6.18,-1.54,-0.22,-0.86,0.58,1012.71
6.966,-0.43,1.59,-0.33,-1.42,6.18,-1.54,-0.22,-0.86,0.58,1012.71
6.994,-0.15,1.06,-0.50,-1.42,6.18,-1.54,-0.22,-0.86,0.58,1012.71
6.997,-0.15,1.06,-0.50,-1.42,6.18,-1.54,-0.34,-0.98,1.06,1012.71
7.0,-0.15,1.06,-0.50,-1.67,5.83,-1.83,-0.34,-0.98,1.06,1012.71
7.002,0.12,0.82,-0.25,-1.67,5.83,-1.83,-0.34,-0.98,1.06,1012.71
7.008,0.12,0.82,-0.25,-1.67,5.83,-1.83,-0.34,-0.98,1.06,1012.70
7.019,0.20,0.94,0.11,-1.67,5.83,-1.83,-0.34,-0.98,1.06,1012.70
7.022,0.20,0.94,0.11,-1.67,5.83,-1.83,-0.60,-0.87,0.77,1012.70
7.024,0.20,0.94,0.11,3.53,2.92,-2.61,-0.60,-0.87,0.77,1012.70
7.04,-0.42,1.21,-0.49,3.53,2.92,-2.61,-0.60,-0.87,0.77,1012.70
7.064,-0.96,1.03,-0.33,3.53,2.92,-2.61,-0.60,-0.87,0.77,1012.70
7.066,-0.96,1.03,-0.33,3.53,2.92,-2.61,-0.79,-0.16,-1.70,1012.70
7.067,-0.96,1.03,-0.33,1.71,2.27,-1.65,-0.79,-0.16,-1.70,1012.70
7.067,-0.96,1.03,-0.33,1.71,2.27,-1.65,-0.79,-0.16,-1.70,1012.71
7.076,-1.36,0.83,0.11,1.71,2.27,-1.65,-0.79,-0.16,-1.70,1012.71
7.096,-1.52,0.80,0.41,1.71,2.27,-1.65,-0.79,-0.16,-1.70,1012.71
7.097,-1.52,0.80,0.41,1.71,2.27,-1.65,-1.35,-0.13,-3.74,1012.71
7.098,-1.52,0.80,0.41,2.81,3.10,-2.05,-1.35,-0.13,-3.74,1012.71
7.118,-1.07,0.80,0.06,2.81,3.10,-2.05,-1.35,-0.13,-3.74,1012.71
7.128,-1.07,0.80,0.06,2.81,3.10,-2.05,-1.35,-0.13,-3.74,1012.70
7.156,-1.07,0.80,0.06,-5.29,1.52,1.44,-1.35,-0.13,-3.74,1012.70
7.161,-0.65,0.77,-0.11,-5.29,1.52,1.44,-1.35,-0.13,-3.74,1012.70
7.163,-0.65,0.77,-0.11,-5.29,1.52,1.44,-0.92,-1.43,-3.19,1012.70
7.164,-0.66,0.67,0.07,-5.29,1.52,1.44,-0.92,-1.43,-3.19,1012.70
7.199,-0.74,0.55,0.14,-5.29,1.52,1.44,-0.92,-1.43,-3.19,1012.70
7.202,-0.74,0.55,0.14,-5.29,1.52,1.44,-0.82,-2.02,-2.46,1012.70
7.203,-0.74,0.55,0.14,1.41,0.88,-0.89,-0.82,-2.02,-2.46,1012.70
7.204,-0.74,0.55,0.14,1.41,0.88,-0.89,-0.82,-2.02,-2.46,1012.69
7.205,-0.62,0.47,0.10,1.41,0.88,-0.89,-0.82,-2.02,-2.46,1012.69
7.217,-0.43,0.39,0.06,1.41,0.88,-0.89,-0.82,-2.02,-2.46,1012.69
7.218,-0.43,0.39,0.06,1.41,0.88,-0.89,-0.99,-1.51,-1.85,1012.69
7.219,-0.43,0.39,0.06,1.67,1.53,-1.57,-0.99,-1.51,-1.85,1012.69
7.25,-0.27,0.32,0.05,1.67,1.53,-1.57,-0.99,-1.51,-1.85,1012.69
7.253,-0.27,0.32,0.05,1.67,1.53,-1.57,-0.99,-1.51,-1.85,1012.68
7.265,-0.17,0.21,0.05,1.67,1.53,-1.57,-0.99,-1.51,-1.85,1012.68
7.267,-0.17,0.21,0.05,1.67,1.53,-1.57,-0.85,-0.59,-0.82,1012.68
7.268,-0.17,0.21,0.05,4.12,-0.79,-1.55,-0.85,-0.59,-0.82,1012.68
7.28,-0.24,0.12,0.06,4.12,-0.79,-1.55,-0.85,-0.59,-0.82,1012.68
7.293,-0.33,0.10,0.07,4.12,-0.79,-1.55,-0.85,-0.59,-0.82,1012.68
7.294,-0.33,0.10,0.07,4.12,-0.79,-1.55,-0.52,0.39,-0.14,1012.68
7.295,-0.33,0.10,0.07,5.93,-3.08,-1.59,-0.52,0.39,-0.14,1012.68
7.306,-0.33,0.10,0.07,5.93,-3.08,-1.59,-0.52,0.39,-0.14,1012.67
7.313,-0.37,0.13,0.04,5.93,-3.08,-1.59,-0.52,0.39,-0.14,1012.67
7.334,-0.37,0.19,-0.02,5.93,-3.08,-1.59,-0.52,0.39,-0.14,1012.67
7.336,-0.37,0.19,-0.02,5.93,-3.08,-1.59,-0.03,1.09,0.72,1012.67
7.337,-0.37,0.19,-0.02,5.79,-3.26,-1.21,-0.03,1.09,0.72,1012.67
7.41,-0.35,0.21,-0.03,5.79,-3.26,-1.21,-0.03,1.09,0.72,1012.67
7.411,-0.35,0.21,-0.03,5.79,-3.26,-1.21,-0.03,1.09,0.72,1012.68
7.412,-0.34,0.20,0.02,5.79,-3.26,-1.21,-0.03,1.09,0.72,1012.68
7.412,-0.34,0.20,0.02,5.79,-3.26,-1.21,0.40,1.25,1.76,1012.68
7.413,-0.34,0.20,0.02,4.32,-3.48,-1.33,0.40,1.25,1.76,1012.68
7.417,-0.41,0.23,0.06,4.32,-3.48,-1.33,0.40,1.25,1.76,1012.68
7.418,-0.52,0.31,0.01,4.32,-3.48,-1.33,0.40,1.25,1.76,1012.68
7.418,-0.52,0.31,0.01,4.32,-3.48,-1.33,0.83,1.24,2.48,1012.68
7.419,-0.52,0.31,0.01,3.16,-3.52,-0.45,0.83,1.24,2.48,1012.68
7.426,-0.52,0.31,0.01,3.16,-3.52,-0.45,0.83,1.24,2.48,1012.67
7.437,-0.66,0.41,-0.00,3.16,-3.52,-0.45,0.83,1.24,2.48,1012.67
7.459,-0.82,0.45,-0.03,3.16,-3.52,-0.45,0.83,1.24,2.48,1012.67
7.461,-0.82,0.45,-0.03,3.16,-3.52,-0.45,1.40,1.02,3.04,1012.67
7.462,-0.82,0.45,-0.03,2.38,-4.31,0.18,1.40,1.02,3.04,1012.67
7.471,-0.93,0.48,-0.06,2.38,-4.31,0.18,1.40,1.02,3.04,1012.67
7.486,-0.93,0.48,-0.06,2.38,-4.31,0.18,1.40,1.02,3.04,1012.66
7.493,-0.94,0.53,0.02,2.38,-4.31,0.18,1.40,1.02,3.04,1012.66
7.493,-0.94,0.53,0.02,2.38,-4.31,0.18,1.89,0.38,3.61,1012.66
7.494,-0.94,0.53,0.02,-2.32,-3.14,0.20,1.89,0.38,3.61,1012.66
7.511,-0.78,0.67,0.00,-2.32,-3.14,0.20,1.89,0.38,3.61,1012.66
7.532,-0.57,0.96,-0.05,-2.32,-3.14,0.20,1.89,0.38,3.61,1012.66
7.544,-0.57,0.96,-0.05,-2.32,-3.14,0.20,2.27,-0.23,4.03,1012.66
7.545,-0.57,0.96,-0.05,-3.09,-1.13,1.07,2.27,-0.23,4.03,1012.66
7.546,-0.57,0.96,-0.05,-3.09,-1.13,1.07,2.27,-0.23,4.03,1012.65
7.56,-0.68,1.10,-0.20,-3.09,-1.13,1.07,2.27,-0.23,4.03,1012.65
7.57,-1.05,1.11,-0.40,-3.09,-1.13,1.07,2.27,-0.23,4.03,1012.65
7.571,-1.05,1.11,-0.40,-3.09,-1.13,1.07,2.41,0.25,3.33,1012.65
7.572,-1.05,1.11,-0.40,-4.14,-1.46,1.88,2.41,0.25,3.33,1012.65
7.59,-1.74,1.43,-0.26,-4.14,-1.46,1.88,2.41,0.25,3.33,1012.65
7.606,-1.74,1.43,-0.26,-4.14,-1.46,1.88,2.41,0.25,3.33,1012.66
7.609,-2.74,1.48,0.82,-4.14,-1.46,1.88,2.41,0.25,3.33,1012.66
7.611,-2.74,1.48,0.82,-4.14,-1.46,1.88,1.63,-1.00,1.48,1012.66
7.612,-2.74,1.48,0.82,-8.28,3.27,-0.38,1.63,-1.00,1.48,1012.66
7.634,-1.45,1.30,1.48,-8.28,3.27,-0.38,1.63,-1.00,1.48,1012.66
7.675,0.85,0.79,0.42,-8.28,3.27,-0.38,1.63,-1.00,1.48,1012.66
7.678,0.85,0.79,0.42,-8.28,3.27,-0.38,0.68,-4.40,0.57,1012.66
7.68,0.85,0.79,0.42,-7.55,3.00,10.79,0.68,-4.40,0.57,1012.66
7.683,0.85,0.79,0.42,-7.55,3.00,10.79,0.68,-4.40,0.57,1012.68
7.684,1.34,0.47,-2.53,-7.55,3.00,10.79,0.68,-4.40,0.57,1012.68
7.69,1.28,1.33,-1.67,-7.55,3.00,10.79,0.68,-4.40,0.57,1012.68
7.692,1.28,1.33,-1.67,-7.55,3.00,10.79,1.70,-1.46,2.62,1012.68
7.693,1.28,1.33,-1.67,-8.20,2.78,11.00,1.70,-1.46,2.62,1012.68
7.709,0.69,1.48,1.09,-8.20,2.78,11.00,1.70,-1.46,2.62,1012.68
7.729,0.69,1.48,1.09,-8.20,2.78,11.00,1.70,-1.46,2.62,1012.70
7.732,-0.75,0.72,-0.55,-8.20,2.78,11.00,1.70,-1.46,2.62,1012.70
7.735,-0.75,0.72,-0.55,-8.20,2.78,11.00,-1.00,3.53,-0.01,1012.70
7.736,-0.75,0.72,-0.55,13.02,1.71,-7.89,-1.00,3.53,-0.01,1012.70
7.753,-1.79,0.61,-0.48,13.02,1.71,-7.89,-1.00,3.53,-0.01,1012.70
7.768,-1.34,0.78,0.16,13.02,1.71,-7.89,-1.00,3.53,-0.01,1012.70
7.769,-1.34,0.78,0.16,13.02,1.71,-7.89,-0.49,3.16,-1.87,1012.70
7.77,-1.34,0.78,0.16,-9.93,-1.91,-0.48,-0.49,3.16,-1.87,1012.70
7.786,-1.34,0.78,0.16,-9.93,-1.91,-0.48,-0.49,3.16,-1.87,1012.68
7.787,-0.50,0.93,-0.52,-9.93,-1.91,-0.48,-0.49,3.16,-1.87,1012.68
7.808,-0.16,0.97,-0.69,-9.93,-1.91,-0.48,-0.49,3.16,-1.87,1012.68
7.81,-0.16,0.97,-0.69,-9.93,-1.91,-0.48,0.63,-1.18,0.60,1012.68
7.811,-0.16,0.97,-0.69,-9.86,-1.88,-0.38,0.63,-1.18,0.60,1012.68
7.833,0.05,1.05,-0.46,-9.86,-1.88,-0.38,0.63,-1.18,0.60,1012.68
7.85,0.05,1.05,-0.46,-9.86,-1.88,-0.38,0.63,-1.18,0.60,1012.68
7.852,0.11,1.08,-0.37,-9.86,-1.88,-0.38,0.63,-1.18,0.60,1012.68
7.853,0.11,1.08,-0.37,-9.86,-1.88,-0.38,0.50,-2.35,0.87,1012.68
7.855,0.11,1.08,-0.37,0.79,0.77,-2.99,0.50,-2.35,0.87,1012.68
7.871,0.09,0.97,-0.36,0.79,0.77,-2.99,0.50,-2.35,0.87,1012.68
7.887,0.05,0.95,-0.40,0.79,0.77,-2.99,0.50,-2.35,0.87,1012.68
7.889,0.05,0.95,-0.40,0.79,0.77,-2.99,-0.13,-0.70,0.16,1012.68
7.891,0.05,0.95,-0.40,3.51,0.86,-1.32,-0.13,-0.70,0.16,1012.68
7.906,0.05,0.95,-0.40,3.51,0.86,-1.32,-0.13,-0.70,0.16,1012.68
7.908,-0.19,0.99,-0.42,3.51,0.86,-1.32,-0.13,-0.70,0.16,1012.68
7.93,-0.50,0.94,-0.26,3.51,0.86,-1.32,-0.13,-0.70,0.16,1012.68
7.933,-0.50,0.94,-0.26,3.51,0.86,-1.32,-0.48,0.57,-0.35,1012.68
7.934,-0.50,0.94,-0.26,3.52,0.84,-1.41,-0.48,0.57,-0.35,1012.68
7.946,-0.63,0.86,-0.10,3.52,0.84,-1.41,-0.48,0.57,-0.35,1012.68
7.967,-0.63,0.86,-0.10,-1.52,0.14,-0.42,-0.48,0.57,-0.35,1012.68
7.969,-0.50,0.87,-0.21,-1.52,0.14,-0.42,-0.48,0.57,-0.35,1012.68
7.971,-0.50,0.87,-0.21,-1.52,0.14,-0.42,-0.51,0.13,-0.22,1012.68
7.972,-0.50,0.87,-0.21,-1.52,0.14,-0.42,-0.51,0.13,-0.22,1012.69
7.985,-0.32,0.97,-0.38,-1.52,0.14,-0.42,-0.51,0.13,-0.22,1012.69
8.006,-0.23,1.02,-0.40,-1.52,0.14,-0.42,-0.51,0.13,-0.22,1012.69
8.009,-0.23,1.02,-0.40,-1.52,0.14,-0.42,-0.18,-1.08,0.19,1012.69
8.011,-0.23,1.02,-0.40,-0.62,0.35,-1.25,-0.18,-1.08,0.19,1012.69
8.033,-0.23,1.02,-0.30,-0.62,0.35,-1.25,-0.18,-1.08,0.19,1012.69
8.036,-0.23,1.02,-0.30,-0.62,0.35,-1.25,-0.18,-1.08,0.19,1012.69
8.045,-0.26,1.01,-0.33,-0.62,0.35,-1.25,-0.18,-1.08,0.19,1012.69
8.047,-0.26,1.01,-0.33,-0.62,0.35,-1.25,-0.37,-1.07,0.21,1012.69
8.048,-0.26,1.01,-0.33,-0.61,0.29,-1.48,-0.37,-1.07,0.21,1012.69
8.068,-0.32,1.01,-0.40,-0.61,0.29,-1.48,-0.37,-1.07,0.21,1012.69
8.086,-0.41,1.03,-0.27,-0.61,0.29,-1.48,-0.37,-1.07,0.21,1012.69
8.089,-0.41,1.03,-0.27,-0.61,0.29,-1.48,-0.65,-0.51,0.15,1012.69
8.091,-0.41,1.03,-0.27,0.17,0.79,-1.90,-0.65,-0.51,0.15,1012.69
8.094,-0.41,1.03,-0.27,0.17,0.79,-1.90,-0.65,-0.51,0.15,1012.67
8.104,-0.46,0.98,-0.12,0.17,0.79,-1.90,-0.65,-0.51,0.15,1012.67
8.136,-0.38,0.95,-0.08,0.17,0.79,-1.90,-0.65,-0.51,0.15,1012.67
8.139,-0.38,0.95,-0.08,0.17,0.79,-1.90,-0.67,-0.80,0.24,1012.67
8.14,-0.38,0.95,-0.08,-1.27,0.50,-0.37,-0.67,-0.80,0.24,1012.67
8.145,-0.28,0.96,-0.18,-1.27,0.50,-0.37,-0.67,-0.80,0.24,1012.67
8.146,-0.28,0.96,-0.18,-1.27,0.50,-0.37,-0.67,-0.80,0.24,1012.65
8.163,-0.26,0.97,-0.27,-1.27,0.50,-0.37,-0.67,-0.80,0.24,1012.65
8.166,-0.26,0.97,-0.27,-1.27,0.50,-0.37,-0.30,-1.76,0.44,1012.65
8.167,-0.26,0.97,-0.27,-1.34,0.43,-0.66,-0.30,-1.76,0.44,1012.65
8.183,-0.21,0.89,-0.27,-1.34,0.43,-0.66,-0.30,-1.76,0.44,1012.65
8.202,-0.23,0.84,-0.37,-1.34,0.43,-0.66,-0.30,-1.76,0.44,1012.65
8.205,-0.23,0.84,-0.37,-1.34,0.43,-0.66,-0.07,-2.17,0.55,1012.65
8.207,-0.23,0.84,-0.37,0.12,-0.10,-1.70,-0.07,-2.17,0.55,1012.65
8.208,-0.23,0.84,-0.37,0.12,-0.10,-1.70,-0.07,-2.17,0.55,1012.65
8.223,-0.41,0.88,-0.23,0.12,-0.10,-1.70,-0.07,-2.17,0.55,1012.65
8.257,-0.45,0.87,0.01,0.12,-0.10,-1.70,-0.07,-2.17,0.55,1012.65
8.26,-0.45,0.87,0.01,0.12,-0.10,-1.70,0.03,-2.76,0.55,1012.65
8.262,-0.45,0.87,0.01,-1.11,-0.92,-1.54,0.03,-2.76,0.55,1012.65
8.264,-0.28,0.87,0.01,-1.11,-0.92,-1.54,0.03,-2.76,0.55,1012.65
8.291,-0.28,0.87,0.01,-1.11,-0.92,-1.54,0.03,-2.76,0.55,1012.66
8.296,-0.13,0.92,-0.04,-1.11,-0.92,-1.54,0.03,-2.76,0.55,1012.66
8.299,-0.13,0.92,-0.04,-1.11,-0.92,-1.54,0.14,-3.68,0.63,1012.66
8.301,-0.13,0.92,-0.04,-1.29,-0.96,-1.80,0.14,-3.68,0.63,1012.66
8.302,-0.13,0.97,-0.04,-1.29,-0.96,-1.80,0.14,-3.68,0.63,1012.66
8.331,-0.22,0.97,0.01,-1.29,-0.96,-1.80,0.14,-3.68,0.63,1012.66
8.334,-0.22,0.97,0.01,-1.29,-0.96,-1.80,0.22,-3.71,0.33,1012.66
8.336,-0.22,0.97,0.01,0.38,-0.41,-0.32,0.22,-3.71,0.33,1012.66
8.338,-0.22,0.97,0.01,0.38,-0.41,-0.32,0.22,-3.71,0.33,1012.67
8.342,-0.15,0.97,0.16,0.38,-0.41,-0.32,0.22,-3.71,0.33,1012.67
8.367,0.06,1.00,0.17,0.38,-0.41,-0.32,0.22,-3.71,0.33,1012.67
8.368,0.06,1.00,0.17,0.38,-0.41,-0.32,-0.02,-2.97,0.20,1012.67
8.368,0.06,1.00,0.17,1.01,0.16,0.76,-0.02,-2.97,0.20,1012.67
8.38,0.19,0.99,0.03,1.01,0.16,0.76,-0.02,-2.97,0.20,1012.67
8.385,0.19,0.99,0.03,1.01,0.16,0.76,-0.02,-2.97,0.20,1012.67
8.4,0.16,0.90,-0.06,1.01,0.16,0.76,-0.02,-2.97,0.20,1012.67
8.402,0.16,0.90,-0.06,1.01,0.16,0.76,0.03,-1.45,0.16,1012.67
8.403,0.16,0.90,-0.06,0.91,0.14,0.65,0.03,-1.45,0.16,1012.67
8.421,0.01,0.89,-0.05,0.91,0.14,0.65,0.03,-1.45,0.16,1012.67
8.455,-0.11,0.96,-0.02,0.91,0.14,0.65,0.03,-1.45,0.16,1012.67
8.458,-0.11,0.96,-0.02,0.91,0.14,0.65,0.16,-0.12,0.28,1012.67
8.46,-0.11,0.96,-0.02,2.94,-0.38,-0.66,0.16,-0.12,0.28,1012.67
8.462,-0.11,0.96,-0.02,2.94,-0.38,-0.66,0.16,-0.12,0.28,1012.67
8.467,-0.13,1.04,-0.00,2.94,-0.38,-0.66,0.16,-0.12,0.28,1012.67
8.487,-0.14,1.08,0.07,2.94,-0.38,-0.66,0.16,-0.12,0.28,1012.67
8.488,-0.14,1.08,0.07,2.94,-0.38,-0.66,0.22,-0.88,0.91,1012.67
8.489,-0.14,1.08,0.07,0.17,0.53,-0.24,0.22,-0.88,0.91,1012.67
8.499,-0.13,1.07,0.14,0.17,0.53,-0.24,0.22,-0.88,0.91,1012.67
8.506,-0.13,1.07,0.14,0.17,0.53,-0.24,0.22,-0.88,0.91,1012.68
8.519,0.02,1.05,0.14,0.17,0.53,-0.24,0.22,-0.88,0.91,1012.68
8.52,0.02,1.05,0.14,0.17,0.53,-0.24,0.22,-1.84,0.85,1012.68
8.521,0.02,1.05,0.14,-0.17,0.48,-0.24,0.22,-1.84,0.85,1012.68
8.553,0.23,1.06,0.11,-0.17,0.48,-0.24,0.22,-1.84,0.85,1012.68
8.559,0.23,1.06,0.11,1.23,0.73,0.89,0.22,-1.84,0.85,1012.68
8.561,0.30,1.07,0.04,1.23,0.73,0.89,0.22,-1.84,0.85,1012.68
8.563,0.30,1.07,0.04,1.23,0.73,0.89,0.21,-1.23,0.53,1012.68
8.578,0.30,1.07,0.04,1.23,0.73,0.89,0.21,-1.23,0.53,1012.68
8.579,0.19,1.07,-0.09,1.23,0.73,0.89,0.21,-1.23,0.53,1012.68
8.598,0.03,1.06,-0.11,1.23,0.73,0.89,0.21,-1.23,0.53,1012.68
8.599,0.03,1.06,-0.11,1.23,0.73,0.89,0.10,-0.11,0.23,1012.68
8.6,0.03,1.06,-0.11,2.41,0.80,-0.85,0.10,-0.11,0.23,1012.68
8.617,-0.10,1.02,-0.03,2.41,0.80,-0.85,0.10,-0.11,0.23,1012.68
8.626,-0.10,1.02,-0.03,2.41,0.80,-0.85,0.10,-0.11,0.23,1012.67
8.658,-0.10,1.02,-0.03,2.39,0.79,-0.90,0.10,-0.11,0.23,1012.67
8.662,-0.16,0.97,0.00,2.39,0.79,-0.90,0.10,-0.11,0.23,1012.67
8.663,-0.16,0.97,0.00,2.39,0.79,-0.90,-0.19,0.50,-0.03,1012.67
8.664,-0.16,0.96,-0.01,2.39,0.79,-0.90,-0.19,0.50,-0.03,1012.67
8.699,-0.15,0.99,-0.03,2.39,0.79,-0.90,-0.19,0.50,-0.03,1012.67
8.702,-0.15,0.99,-0.03,2.39,0.79,-0.90,-0.13,0.22,0.03,1012.67
8.703,-0.15,0.99,-0.03,-0.71,-0.04,-0.51,-0.13,0.22,0.03,1012.67
8.705,-0.15,0.99,-0.03,-0.71,-0.04,-0.51,-0.13,0.22,0.03,1012.65
8.707,-0.08,1.01,0.03,-0.71,-0.04,-0.51,-0.13,0.22,0.03,1012.65
8.72,0.03,1.02,0.05,-0.71,-0.04,-0.51,-0.13,0.22,0.03,1012.65
8.722,0.03,1.02,0.05,-0.71,-0.04,-0.51,-0.02,-0.23,0.17,1012.65
8.724,0.03,1.02,0.05,-0.02,0.16,-0.24,-0.02,-0.23,0.17,1012.65
8.737,0.09,1.03,0.04,-0.02,0.16,-0.24,-0.02,-0.23,0.17,1012.65
8.747,0.09,1.03,0.04,-0.02,0.16,-0.24,-0.02,-0.23,0.17,1012.66
8.779,0.06,1.03,0.03,-0.02,0.16,-0.24,-0.02,-0.23,0.17,1012.66
8.782,0.06,1.03,0.03,-0.02,0.16,-0.24,-0.03,-0.06,0.09,1012.66
8.784,0.06,1.03,0.03,-0.06,0.15,-0.25,-0.03,-0.06,0.09,1012.66
8.785,0.02,1.03,0.04,-0.06,0.15,-0.25,-0.03,-0.06,0.09,1012.66
8.812,-0.01,1.02,0.01,-0.06,0.15,-0.25,-0.03,-0.06,0.09,1012.66
8.814,-0.01,1.02,0.01,-0.06,0.15,-0.25,-0.11,0.41,-0.08,1012.66
8.815,-0.01,1.02,0.01,1.14,0.38,-0.10,-0.11,0.41,-0.08,1012.66
8.816,-0.01,1.02,0.01,1.14,0.38,-0.10,-0.11,0.41,-0.08,1012.68
8.817,-0.06,1.00,-0.03,1.14,0.38,-0.10,-0.11,0.41,-0.08,1012.68
8.842,-0.10,0.97,-0.01,1.14,0.38,-0.10,-0.11,0.41,-0.08,1012.68
8.845,-0.10,0.97,-0.01,1.14,0.38,-0.10,-0.13,0.60,-0.16,1012.68
8.846,-0.10,0.97,-0.01,0.11,0.12,-0.58,-0.13,0.60,-0.16,1012.68
8.875,-0.12,0.96,-0.01,0.11,0.12,-0.58,-0.13,0.60,-0.16,1012.68
8.876,-0.12,0.96,-0.01,0.11,0.12,-0.58,-0.13,0.60,-0.16,1012.69
8.877,-0.16,0.98,-0.01,0.11,0.12,-0.58,-0.13,0.60,-0.16,1012.69
8.878,-0.16,0.98,-0.01,0.16,0.12,-0.60,-0.13,0.60,-0.16,1012.69
8.878,-0.16,0.98,-0.01,0.16,0.12,-0.60,-0.09,0.42,-0.13,1012.69
8.894,-0.17,0.96,-0.01,0.16,0.12,-0.60,-0.09,0.42,-0.13,1012.69
8.915,-0.14,0.93,-0.07,0.16,0.12,-0.60,-0.09,0.42,-0.13,1012.69
8.917,-0.14,0.93,-0.07,0.16,0.12,-0.60,0.01,0.13,-0.05,1012.69
8.918,-0.14,0.93,-0.07,-0.72,-0.19,-0.57,0.01,0.13,-0.05,1012.69
8.944,-0.14,0.93,-0.07,-0.72,-0.19,-0.57,0.01,0.13,-0.05,1012.68
8.946,-0.13,0.92,-0.11,-0.72,-0.19,-0.57,0.01,0.13,-0.05,1012.68
8.966,-0.13,0.94,-0.09,-0.72,-0.19,-0.57,0.01,0.13,-0.05,1012.68
8.967,-0.13,0.94,-0.09,-0.72,-0.19,-0.57,0.13,-0.08,-0.01,1012.68
8.968,-0.13,0.94,-0.09,-0.56,-0.54,-1.29,0.13,-0.08,-0.01,1012.68
8.972,-0.11,1.01,0.05,-0.56,-0.54,-1.29,0.13,-0.08,-0.01,1012.68
8.985,-0.11,1.01,0.05,-0.56,-0.54,-1.29,0.13,-0.08,-0.01,1012.68
8.992,-0.08,1.05,0.11,-0.56,-0.54,-1.29,0.13,-0.08,-0.01,1012.68
8.994,-0.08,1.05,0.11,-0.56,-0.54,-1.29,0.17,-0.36,0.06,1012.68
8.994,-0.08,1.05,0.11,-0.58,-0.54,-1.22,0.17,-0.36,0.06,1012.68
9.013,-0.00,1.05,0.10,-0.58,-0.54,-1.22,0.17,-0.36,0.06,1012.68
9.035,0.09,1.05,0.04,-0.58,-0.54,-1.22,0.17,-0.36,0.06,1012.68
9.037,0.09,1.05,0.04,-0.58,-0.54,-1.22,0.18,-0.43,0.10,1012.68
9.039,0.09,1.05,0.04,0.06,0.48,0.56,0.18,-0.43,0.10,1012.68
9.045,0.09,1.05,0.04,0.06,0.48,0.56,0.18,-0.43,0.10,1012.68
9.069,0.10,1.03,-0.02,0.06,0.48,0.56,0.18,-0.43,0.10,1012.68
9.072,0.01,1.00,-0.07,0.06,0.48,0.56,0.18,-0.43,0.10,1012.68
9.074,0.01,1.00,-0.07,0.06,0.48,0.56,0.12,0.14,-0.07,1012.68
9.075,0.01,1.00,-0.07,1.36,0.40,-0.38,0.12,0.14,-0.07,1012.68
9.092,-0.13,0.98,-0.07,1.36,0.40,-0.38,0.12,0.14,-0.07,1012.68
9.105,-0.13,0.98,-0.07,1.36,0.40,-0.38,0.12,0.14,-0.07,1012.68
9.112,-0.19,0.97,-0.06,1.36,0.40,-0.38,0.12,0.14,-0.07,1012.68
9.113,-0.19,0.97,-0.06,1.36,0.40,-0.38,0.00,0.79,-0.21,1012.68
9.114,-0.19,0.97,-0.06,1.43,0.40,-0.35,0.00,0.79,-0.21,1012.68
9.132,-0.19,0.96,-0.06,1.43,0.40,-0.35,0.00,0.79,-0.21,1012.68
9.159,-0.19,0.96,-0.06,-0.83,-0.16,-0.77,0.00,0.79,-0.21,1012.68
9.163,-0.19,0.96,-0.07,-0.83,-0.16,-0.77,0.00,0.79,-0.21,1012.68
9.164,-0.19,0.96,-0.07,-0.83,-0.16,-0.77,0.05,0.59,-0.12,1012.68
9.165,-0.19,0.96,-0.07,-0.83,-0.16,-0.77,0.05,0.59,-0.12,1012.67
9.191,-0.17,0.97,-0.07,-0.83,-0.16,-0.77,0.05,0.59,-0.12,1012.67
9.193,-0.14,0.98,-0.05,-0.83,-0.16,-0.77,0.05,0.59,-0.12,1012.67
9.194,-0.14,0.98,-0.05,-0.83,-0.16,-0.77,0.17,-0.03,0.03,1012.67
9.195,-0.14,0.98,-0.05,-0.80,-0.12,-0.70,0.17,-0.03,0.03,1012.67
9.21,-0.06,1.00,-0.09,-0.80,-0.12,-0.70,0.17,-0.03,0.03,1012.67
9.226,-0.06,1.00,-0.09,-0.80,-0.12,-0.70,0.17,-0.03,0.03,1012.67
9.235,-0.06,1.00,-0.09,-0.84,-0.13,-0.61,0.17,-0.03,0.03,1012.67
9.239,0.05,1.03,-0.07,-0.84,-0.13,-0.61,0.17,-0.03,0.03,1012.67
9.24,0.05,1.03,-0.07,-0.84,-0.13,-0.61,0.24,-0.39,0.12,1012.67
9.251,-0.02,1.01,-0.02,-0.84,-0.13,-0.61,0.24,-0.39,0.12,1012.67
9.291,-0.14,1.01,-0.06,-0.84,-0.13,-0.61,0.24,-0.39,0.12,1012.67
9.294,-0.14,1.01,-0.06,-0.84,-0.13,-0.61,0.20,-0.22,0.07,1012.67
9.295,-0.14,1.01,-0.06,0.67,0.25,-0.49,0.20,-0.22,0.07,1012.67
9.296,-0.14,1.01,-0.06,0.67,0.25,-0.49,0.20,-0.22,0.07,1012.68
9.298,-0.18,1.00,-0.08,0.67,0.25,-0.49,0.20,-0.22,0.07,1012.68
9.309,-0.18,1.00,-0.08,-0.64,0.19,-0.44,0.20,-0.22,0.07,1012.68
9.312,-0.10,1.01,-0.05,-0.64,0.19,-0.44,0.20,-0.22,0.07,1012.68
9.314,-0.10,1.01,-0.05,-0.64,0.19,-0.44,0.23,-0.12,0.13,1012.68
9.329,-0.03,1.03,-0.07,-0.64,0.19,-0.44,0.23,-0.12,0.13,1012.68
9.362,-0.03,1.03,-0.07,-0.64,0.19,-0.44,0.23,-0.12,0.13,1012.67
9.365,0.06,1.05,-0.08,-0.64,0.19,-0.44,0.23,-0.12,0.13,1012.67
9.366,0.06,1.05,-0.08,-0.64,0.19,-0.44,0.21,-0.49,0.12,1012.67
9.366,0.06,1.05,-0.08,-0.67,0.19,-0.37,0.21,-0.49,0.12,1012.67
9.397,0.05,1.03,-0.07,-0.67,0.19,-0.37,0.21,-0.49,0.12,1012.67
9.398,0.02,1.01,-0.07,-0.67,0.19,-0.37,0.21,-0.49,0.12,1012.67
9.399,0.02,1.01,-0.07,-0.67,0.19,-0.37,0.12,-0.23,0.00,1012.67
9.4,0.02,1.01,-0.07,0.95,0.47,-0.40,0.12,-0.23,0.00,1012.67
9.404,0.02,1.01,-0.07,0.95,0.47,-0.40,0.12,-0.23,0.00,1012.66
9.407,-0.05,1.00,-0.09,0.95,0.47,-0.40,0.12,-0.23,0.00,1012.66
9.428,-0.08,1.00,-0.09,0.95,0.47,-0.40,0.12,-0.23,0.00,1012.66
9.429,-0.08,1.00,-0.09,0.95,0.47,-0.40,0.01,0.30,-0.11,1012.66
9.429,-0.08,1.00,-0.09,0.35,0.14,-0.50,0.01,0.30,-0.11,1012.66
9.447,-0.10,0.99,-0.09,0.35,0.14,-0.50,0.01,0.30,-0.11,1012.66
9.465,-0.10,0.99,-0.09,0.35,0.14,-0.50,0.01,0.30,-0.11,1012.66
9.469,-0.10,0.99,-0.09,0.39,0.14,-0.48,0.01,0.30,-0.11,1012.66
9.47,-0.14,0.98,-0.08,0.39,0.14,-0.48,0.01,0.30,-0.11,1012.66
9.471,-0.14,0.98,-0.08,0.39,0.14,-0.48,0.00,0.28,-0.13,1012.66
9.487,-0.13,0.99,-0.07,0.39,0.14,-0.48,0.00,0.28,-0.13,1012.66
9.507,-0.12,1.01,-0.06,0.39,0.14,-0.48,0.00,0.28,-0.13,1012.66
9.509,-0.12,1.01,-0.06,0.39,0.14,-0.48,0.06,0.05,-0.06,1012.66
9.51,-0.12,1.01,-0.06,-0.43,-0.02,-0.39,0.06,0.05,-0.06,1012.66
9.526,-0.12,1.01,-0.06,-0.43,-0.02,-0.39,0.06,0.05,-0.06,1012.66
9.528,-0.09,1.03,-0.06,-0.43,-0.02,-0.39,0.06,0.05,-0.06,1012.66
9.554,-0.06,1.01,-0.08,-0.43,-0.02,-0.39,0.06,0.05,-0.06,1012.66
9.556,-0.06,1.01,-0.08,-0.43,-0.02,-0.39,0.10,-0.13,0.02,1012.66
9.558,-0.06,1.01,-0.08,-0.12,0.29,-0.24,0.10,-0.13,0.02,1012.66
9.567,-0.05,0.99,-0.09,-0.12,0.29,-0.24,0.10,-0.13,0.02,1012.66
9.601,-0.05,0.99,-0.09,-0.12,0.29,-0.24,0.10,-0.13,0.02,1012.66
9.61,-0.08,0.98,-0.10,-0.12,0.29,-0.24,0.10,-0.13,0.02,1012.66
9.611,-0.08,0.98,-0.10,-0.12,0.29,-0.24,0.08,-0.08,0.04,1012.66
9.614,-0.08,0.98,-0.10,-0.13,0.28,-0.21,0.08,-0.08,0.04,1012.66
9.615,-0.07,1.01,-0.10,-0.13,0.28,-0.21,0.08,-0.08,0.04,1012.66
9.625,-0.05,1.02,-0.10,-0.13,0.28,-0.21,0.08,-0.08,0.04,1012.66
9.626,-0.05,1.02,-0.10,-0.13,0.28,-0.21,0.06,-0.02,0.01,1012.66
9.628,-0.05,1.02,-0.10,0.11,0.04,-0.47,0.06,-0.02,0.01,1012.66
9.645,-0.05,1.02,-0.10,0.11,0.04,-0.47,0.06,-0.02,0.01,1012.65
9.646,-0.04,1.00,-0.09,0.11,0.04,-0.47,0.06,-0.02,0.01,1012.65
9.664,-0.03,1.00,-0.10,0.11,0.04,-0.47,0.06,-0.02,0.01,1012.65
9.666,-0.03,1.00,-0.10,0.11,0.04,-0.47,0.04,-0.02,-0.01,1012.65
9.666,-0.03,1.00,-0.10,0.37,0.18,-0.41,0.04,-0.02,-0.01,1012.65
9.686,-0.06,1.01,-0.12,0.37,0.18,-0.41,0.04,-0.02,-0.01,1012.65
9.704,-0.06,1.01,-0.12,0.37,0.18,-0.41,0.04,-0.02,-0.01,1012.66
9.705,-0.13,0.99,-0.04,0.37,0.18,-0.41,0.04,-0.02,-0.01,1012.66
9.706,-0.13,0.99,-0.04,0.37,0.18,-0.41,-0.00,0.12,-0.07,1012.66
9.707,-0.13,0.99,-0.04,0.39,0.17,-0.40,-0.00,0.12,-0.07,1012.66
9.723,-0.11,0.99,-0.09,0.39,0.17,-0.40,-0.00,0.12,-0.07,1012.66
