time,gFx,gFy,gFz,ax,ay,az,wx,wy,wz,P
0.005,0.06,1.01,0.05,-0.07,-0.03,0.26,0.03,-0.01,0.02,1012.86
0.013,0.06,1.01,0.05,-0.07,-0.03,0.26,0.03,-0.01,0.02,1012.86
0.026,0.01,0.97,0.07,-0.07,-0.03,0.26,0.03,-0.01,0.02,1012.86
0.027,0.01,0.97,0.07,-0.07,-0.03,0.26,0.05,-0.06,-0.02,1012.86
0.028,0.01,0.97,0.07,-0.10,-0.05,0.07,0.05,-0.06,-0.02,1012.86
0.04,0.00,1.00,0.05,-0.10,-0.05,0.07,0.05,-0.06,-0.02,1012.86
0.059,0.09,0.99,0.05,-0.10,-0.05,0.07,0.05,-0.06,-0.02,1012.86
0.06,0.09,0.99,0.05,-0.10,-0.05,0.07,0.05,-0.11,0.06,1012.86
0.06,0.09,0.99,0.05,-0.11,-0.04,0.08,0.05,-0.11,0.06,1012.86
0.072,0.09,0.99,0.05,-0.11,-0.04,0.08,0.05,-0.11,0.06,1012.87
0.079,0.09,0.99,0.06,-0.11,-0.04,0.08,0.05,-0.11,0.06,1012.87
0.099,0.10,0.99,0.05,-0.11,-0.04,0.08,0.05,-0.11,0.06,1012.87
0.1,0.10,0.99,0.05,-0.11,-0.04,0.08,0.05,-0.22,0.07,1012.87
0.101,0.10,0.99,0.05,-0.04,0.01,0.03,0.05,-0.22,0.07,1012.87
0.122,0.10,1.00,0.04,-0.04,0.01,0.03,0.05,-0.22,0.07,1012.87
0.132,0.10,1.00,0.04,-0.04,0.01,0.03,0.05,-0.22,0.07,1012.87
0.14,0.07,1.01,0.04,-0.04,0.01,0.03,0.05,-0.22,0.07,1012.87
0.141,0.07,1.01,0.04,-0.04,0.01,0.03,0.06,-0.11,0.00,1012.87
0.142,0.07,1.01,0.04,0.24,0.05,-0.05,0.06,-0.11,0.00,1012.87
0.158,0.06,1.01,0.04,0.24,0.05,-0.05,0.06,-0.11,0.00,1012.87
0.178,0.06,1.00,0.04,0.24,0.05,-0.05,0.06,-0.11,0.00,1012.87
0.179,0.06,1.00,0.04,0.24,0.05,-0.05,0.05,-0.00,-0.02,1012.87
0.18,0.06,1.00,0.04,0.25,0.05,-0.03,0.05,-0.00,-0.02,1012.87
0.206,0.06,1.00,0.04,0.25,0.05,-0.03,0.05,-0.00,-0.02,1012.88
0.208,0.05,1.00,0.05,0.25,0.05,-0.03,0.05,-0.00,-0.02,1012.88
0.237,0.06,1.00,0.05,0.25,0.05,-0.03,0.05,-0.00,-0.02,1012.88
0.239,0.06,1.00,0.05,-0.06,0.08,-0.00,0.05,-0.00,-0.02,1012.88
0.241,0.06,1.00,0.05,-0.06,0.08,-0.00,0.05,-0.07,0.00,1012.88
0.242,0.10,1.00,0.06,-0.06,0.08,-0.00,0.05,-0.07,0.00,1012.88
0.256,0.10,1.00,0.06,-0.06,0.08,-0.00,0.05,-0.07,0.00,1012.88
0.258,0.10,1.00,0.06,-0.06,0.08,-0.00,0.05,-0.07,0.00,1012.88
0.26,0.10,1.00,0.06,-0.06,0.08,-0.00,0.06,-0.13,0.02,1012.88
0.261,0.10,1.00,0.06,0.20,0.05,0.16,0.06,-0.13,0.02,1012.88
0.289,0.09,1.00,0.05,0.20,0.05,0.16,0.06,-0.13,0.02,1012.88
0.303,0.09,1.00,0.06,0.20,0.05,0.16,0.06,-0.13,0.02,1012.88
0.304,0.09,1.00,0.06,0.20,0.05,0.16,0.08,-0.08,-0.00,1012.88
0.305,0.09,1.00,0.06,0.20,0.05,0.19,0.08,-0.08,-0.00,1012.88
0.322,0.09,1.00,0.06,0.20,0.05,0.19,0.08,-0.08,-0.00,1012.90
0.324,0.08,1.00,0.06,0.20,0.05,0.19,0.08,-0.08,-0.00,1012.90
0.343,0.07,0.99,0.06,0.20,0.05,0.19,0.08,-0.08,-0.00,1012.90
0.344,0.07,0.99,0.06,0.20,0.05,0.19,0.10,-0.02,-0.02,1012.90
0.345,0.07,0.99,0.06,0.17,0.03,0.21,0.10,-0.02,-0.02,1012.90
0.356,0.06,0.97,0.05,0.17,0.03,0.21,0.10,-0.02,-0.02,1012.90
0.372,0.06,0.97,0.05,0.17,0.03,0.21,0.10,-0.02,-0.02,1012.88
0.376,0.07,0.97,0.05,0.17,0.03,0.21,0.10,-0.02,-0.02,1012.88
0.376,0.07,0.97,0.05,0.17,0.03,0.21,0.12,-0.02,-0.03,1012.88
0.377,0.07,0.97,0.05,0.00,-0.16,0.24,0.12,-0.02,-0.03,1012.88
0.396,0.07,0.99,0.05,0.00,-0.16,0.24,0.12,-0.02,-0.03,1012.88
0.43,0.06,0.99,0.04,0.00,-0.16,0.24,0.12,-0.02,-0.03,1012.88
0.432,0.06,0.99,0.04,0.00,-0.16,0.24,0.14,-0.04,-0.05,1012.88
0.432,0.06,0.99,0.04,0.02,-0.16,0.29,0.14,-0.04,-0.05,1012.88
0.433,0.06,0.99,0.04,0.02,-0.16,0.29,0.14,-0.04,-0.05,1012.88
0.435,0.04,0.99,0.03,0.02,-0.16,0.29,0.14,-0.04,-0.05,1012.88
0.471,0.03,0.99,0.02,0.02,-0.16,0.29,0.14,-0.04,-0.05,1012.88
0.472,0.03,0.99,0.02,0.02,-0.16,0.29,0.16,-0.04,-0.04,1012.88
0.473,0.03,0.99,0.02,-0.05,-0.05,0.19,0.16,-0.04,-0.04,1012.88
0.479,0.04,1.00,0.01,-0.05,-0.05,0.19,0.16,-0.04,-0.04,1012.88
0.492,0.04,1.00,0.01,-0.05,-0.05,0.19,0.16,-0.04,-0.04,1012.87
0.494,0.04,1.00,0.01,-0.05,-0.05,0.19,0.16,-0.04,-0.04,1012.87
0.495,0.04,1.00,0.01,-0.05,-0.05,0.19,0.17,-0.06,-0.01,1012.87
0.496,0.04,1.00,0.01,-0.25,0.01,-0.02,0.17,-0.06,-0.01,1012.87
0.523,0.05,0.99,0.01,-0.25,0.01,-0.02,0.17,-0.06,-0.01,1012.87
0.549,0.05,0.99,0.01,-0.25,0.01,-0.02,0.17,-0.06,-0.01,1012.87
0.55,0.05,0.99,0.01,-0.25,0.01,-0.02,0.18,-0.07,0.03,1012.87
0.552,0.05,0.99,0.01,-0.26,0.01,0.05,0.18,-0.07,0.03,1012.87
0.553,0.05,0.99,0.01,-0.26,0.01,0.05,0.18,-0.07,0.03,1012.88
0.556,0.05,1.00,0.01,-0.26,0.01,0.05,0.18,-0.07,0.03,1012.88
0.573,0.05,1.00,0.01,-0.26,0.01,0.05,0.18,-0.07,0.03,1012.88
0.574,0.05,1.00,0.01,-0.26,0.01,0.05,0.18,-0.06,0.04,1012.88
0.575,0.05,1.00,0.01,-0.13,0.01,0.08,0.18,-0.06,0.04,1012.88
0.593,0.05,0.99,0.01,-0.13,0.01,0.08,0.18,-0.06,0.04,1012.88
0.613,0.05,0.99,0.01,-0.13,0.01,0.08,0.18,-0.06,0.04,1012.88
0.614,0.06,0.99,0.01,-0.13,0.01,0.08,0.18,-0.06,0.04,1012.88
0.615,0.06,0.99,0.01,-0.13,0.01,0.08,0.19,-0.07,0.07,1012.88
0.615,0.06,0.99,0.01,-0.15,-0.03,0.20,0.19,-0.07,0.07,1012.88
0.633,0.07,0.99,0.01,-0.15,-0.03,0.20,0.19,-0.07,0.07,1012.88
0.661,0.06,0.99,0.01,-0.15,-0.03,0.20,0.19,-0.07,0.07,1012.88
0.663,0.06,0.99,0.01,-0.15,-0.03,0.20,0.23,-0.10,0.09,1012.88
0.665,0.06,0.99,0.01,-0.18,-0.03,0.29,0.23,-0.10,0.09,1012.88
0.675,0.06,0.99,0.01,-0.18,-0.03,0.29,0.23,-0.10,0.09,1012.88
0.678,0.06,0.98,0.01,-0.18,-0.03,0.29,0.23,-0.10,0.09,1012.88
0.693,0.07,0.98,0.00,-0.18,-0.03,0.29,0.23,-0.10,0.09,1012.88
0.695,0.07,0.98,0.00,-0.18,-0.03,0.29,0.27,-0.13,0.12,1012.88
0.696,0.07,0.98,0.00,-0.09,-0.07,0.36,0.27,-0.13,0.12,1012.88
0.739,0.07,0.99,-0.01,-0.09,-0.07,0.36,0.27,-0.13,0.12,1012.88
0.743,0.07,0.99,-0.01,-0.09,-0.07,0.36,0.27,-0.13,0.12,1012.87
0.746,0.07,0.98,-0.01,-0.09,-0.07,0.36,0.27,-0.13,0.12,1012.87
0.747,0.07,0.98,-0.01,-0.09,-0.07,0.36,0.32,-0.11,0.14,1012.87
0.749,0.07,0.98,-0.01,-0.08,-0.09,0.34,0.32,-0.11,0.14,1012.87
0.752,0.08,0.99,-0.01,-0.08,-0.09,0.34,0.32,-0.11,0.14,1012.87
0.777,0.08,0.99,-0.01,-0.13,-0.08,0.48,0.32,-0.11,0.14,1012.87
0.778,0.07,1.00,-0.01,-0.13,-0.08,0.48,0.32,-0.11,0.14,1012.87
0.779,0.07,1.00,-0.01,-0.13,-0.08,0.48,0.38,-0.01,0.15,1012.87
0.799,0.06,0.98,-0.02,-0.13,-0.08,0.48,0.38,-0.01,0.15,1012.87
0.803,0.06,0.98,-0.02,-0.13,-0.08,0.48,0.38,-0.01,0.15,1012.88
0.815,0.07,0.96,-0.04,-0.13,-0.08,0.48,0.38,-0.01,0.15,1012.88
0.816,0.07,0.96,-0.04,-0.13,-0.08,0.48,0.44,0.04,0.18,1012.88
0.817,0.07,0.96,-0.04,-0.20,-0.02,0.52,0.44,0.04,0.18,1012.88
0.831,0.11,0.96,-0.07,-0.20,-0.02,0.52,0.44,0.04,0.18,1012.88
0.85,0.14,0.96,-0.08,-0.20,-0.02,0.52,0.44,0.04,0.18,1012.88
0.852,0.14,0.96,-0.08,-0.20,-0.02,0.52,0.52,-0.14,0.22,1012.88
0.853,0.14,0.96,-0.08,0.05,-0.24,0.20,0.52,-0.14,0.22,1012.88
0.853,0.14,0.96,-0.08,0.05,-0.24,0.20,0.52,-0.14,0.22,1012.88
0.87,0.13,0.97,-0.13,0.05,-0.24,0.20,0.52,-0.14,0.22,1012.88
0.89,0.14,0.95,-0.15,0.05,-0.24,0.20,0.52,-0.14,0.22,1012.88
0.891,0.14,0.95,-0.15,0.05,-0.24,0.20,0.56,-0.32,0.19,1012.88
0.891,0.14,0.95,-0.15,-0.00,-0.21,0.42,0.56,-0.32,0.19,1012.88
0.91,0.22,0.96,-0.15,-0.00,-0.21,0.42,0.56,-0.32,0.19,1012.88
0.911,0.22,0.96,-0.15,-0.00,-0.21,0.42,0.56,-0.32,0.19,1012.87
0.943,0.29,1.01,-0.13,-0.00,-0.21,0.42,0.56,-0.32,0.19,1012.87
0.944,0.29,1.01,-0.13,-0.00,-0.21,0.42,0.56,-0.46,0.07,1012.87
0.944,0.29,1.01,-0.13,0.59,-0.20,-0.11,0.56,-0.46,0.07,1012.87
0.949,0.29,1.02,-0.06,0.59,-0.20,-0.11,0.56,-0.46,0.07,1012.87
0.971,0.17,0.99,-0.09,0.59,-0.20,-0.11,0.56,-0.46,0.07,1012.87
0.972,0.17,0.99,-0.09,0.59,-0.20,-0.11,0.51,-0.38,-0.10,1012.87
0.973,0.17,0.99,-0.09,1.43,0.25,0.57,0.51,-0.38,-0.10,1012.87
0.973,0.17,0.99,-0.09,1.43,0.25,0.57,0.51,-0.38,-0.10,1012.86
0.99,-0.02,0.98,-0.23,1.43,0.25,0.57,0.51,-0.38,-0.10,1012.86
1.011,-0.02,0.98,-0.23,1.51,0.27,0.78,0.51,-0.38,-0.10,1012.86
1.014,-0.08,1.01,-0.38,1.51,0.27,0.78,0.51,-0.38,-0.10,1012.86
1.017,-0.08,1.01,-0.38,1.51,0.27,0.78,0.56,-0.33,-0.22,1012.86
1.037,0.04,0.98,-0.37,1.51,0.27,0.78,0.56,-0.33,-0.22,1012.86
1.041,0.04,0.98,-0.37,1.51,0.27,0.78,0.56,-0.33,-0.22,1012.86
1.049,0.27,0.97,-0.18,1.51,0.27,0.78,0.56,-0.33,-0.22,1012.86
1.051,0.27,0.97,-0.18,1.51,0.27,0.78,0.49,-0.53,-0.07,1012.86
1.053,0.27,0.97,-0.18,-1.01,0.16,-1.28,0.49,-0.53,-0.07,1012.86
1.074,0.18,0.97,-0.20,-1.01,0.16,-1.28,0.49,-0.53,-0.07,1012.86
1.092,-0.12,0.98,-0.39,-1.01,0.16,-1.28,0.49,-0.53,-0.07,1012.86
1.096,-0.12,0.98,-0.39,-1.01,0.16,-1.28,0.39,-0.27,-0.11,1012.86
1.098,-0.12,0.98,-0.39,0.28,0.03,-0.45,0.39,-0.27,-0.11,1012.86
1.101,-0.12,0.98,-0.39,0.28,0.03,-0.45,0.39,-0.27,-0.11,1012.87
1.11,-0.15,0.98,-0.44,0.28,0.03,-0.45,0.39,-0.27,-0.11,1012.87
1.144,0.07,0.99,-0.34,0.28,0.03,-0.45,0.39,-0.27,-0.11,1012.87
1.146,0.07,0.99,-0.34,0.28,0.03,-0.45,0.33,-0.01,-0.09,1012.87
1.146,0.07,0.99,-0.34,0.31,0.06,-0.32,0.33,-0.01,-0.09,1012.87
1.15,0.20,0.99,-0.27,0.31,0.06,-0.32,0.33,-0.01,-0.09,1012.87
1.152,0.20,0.99,-0.27,0.31,0.06,-0.32,0.33,-0.01,-0.09,1012.87
1.184,0.11,0.97,-0.26,0.31,0.06,-0.32,0.33,-0.01,-0.09,1012.87
1.187,0.11,0.97,-0.26,0.31,0.06,-0.32,0.19,-0.22,0.10,1012.87
1.188,0.11,0.97,-0.26,-0.40,0.22,-1.11,0.19,-0.22,0.10,1012.87
1.189,-0.00,0.96,-0.24,-0.40,0.22,-1.11,0.19,-0.22,0.10,1012.87
1.218,-0.01,0.97,-0.25,-0.40,0.22,-1.11,0.19,-0.22,0.10,1012.87
1.22,-0.01,0.97,-0.25,-0.40,0.22,-1.11,0.16,0.05,0.03,1012.87
1.221,-0.01,0.97,-0.25,-0.47,0.03,-0.09,0.16,0.05,0.03,1012.87
1.223,-0.01,0.97,-0.25,-0.47,0.03,-0.09,0.16,0.05,0.03,1012.86
1.248,0.03,0.96,-0.24,-0.47,0.03,-0.09,0.16,0.05,0.03,1012.86
1.25,0.08,0.96,-0.25,-0.47,0.03,-0.09,0.16,0.05,0.03,1012.86
1.251,0.08,0.96,-0.25,-0.47,0.03,-0.09,0.18,-0.00,0.11,1012.86
1.252,0.08,0.96,-0.25,-0.50,0.05,-0.02,0.18,-0.00,0.11,1012.86
1.265,0.08,0.96,-0.28,-0.50,0.05,-0.02,0.18,-0.00,0.11,1012.86
1.273,0.08,0.96,-0.28,-0.50,0.05,-0.02,0.18,-0.00,0.11,1012.87
1.286,0.05,0.96,-0.28,-0.50,0.05,-0.02,0.18,-0.00,0.11,1012.87
1.287,0.05,0.96,-0.28,-0.50,0.05,-0.02,0.20,-0.05,0.18,1012.87
1.288,0.05,0.96,-0.28,-0.22,0.01,-0.02,0.20,-0.05,0.18,1012.87
1.321,0.02,0.95,-0.28,-0.22,0.01,-0.02,0.20,-0.05,0.18,1012.87
1.325,-0.04,0.95,-0.30,-0.22,0.01,-0.02,0.20,-0.05,0.18,1012.87
1.327,-0.04,0.95,-0.30,-0.22,0.01,-0.02,0.20,0.08,0.20,1012.87
1.332,-0.04,0.95,-0.30,-0.86,-0.02,-0.20,0.20,0.08,0.20,1012.87
1.334,-0.04,0.95,-0.30,-0.86,-0.02,-0.20,0.20,0.08,0.20,1012.88
1.358,-0.06,0.95,-0.30,-0.86,-0.02,-0.20,0.20,0.08,0.20,1012.88
1.365,-0.00,0.95,-0.29,-0.86,-0.02,-0.20,0.20,0.08,0.20,1012.88
1.366,-0.00,0.95,-0.29,-0.86,-0.02,-0.20,0.19,-0.00,0.35,1012.88
1.367,-0.00,0.95,-0.29,-0.97,0.01,-0.13,0.19,-0.00,0.35,1012.88
1.384,0.02,0.98,-0.35,-0.97,0.01,-0.13,0.19,-0.00,0.35,1012.88
1.403,0.02,0.98,-0.35,-0.97,0.01,-0.13,0.19,-0.00,0.35,1012.88
1.409,0.02,0.98,-0.35,-1.37,0.08,-0.33,0.19,-0.00,0.35,1012.88
1.41,0.10,0.98,-0.32,-1.37,0.08,-0.33,0.19,-0.00,0.35,1012.88
1.411,0.10,0.98,-0.32,-1.37,0.08,-0.33,0.18,-0.16,0.55,1012.88
1.46,0.22,0.98,-0.32,-1.37,0.08,-0.33,0.18,-0.16,0.55,1012.88
1.463,0.29,1.03,-0.35,-1.37,0.08,-0.33,0.18,-0.16,0.55,1012.88
1.465,0.29,1.03,-0.35,-1.37,0.08,-0.33,0.17,-0.08,0.64,1012.88
1.467,0.29,1.03,-0.35,0.54,0.50,-0.45,0.17,-0.08,0.64,1012.88
1.469,0.29,1.03,-0.35,0.54,0.50,-0.45,0.17,-0.08,0.64,1012.88
1.471,0.32,1.09,-0.35,0.54,0.50,-0.45,0.17,-0.08,0.64,1012.88
1.484,0.28,1.17,-0.32,0.54,0.50,-0.45,0.17,-0.08,0.64,1012.88
1.486,0.28,1.17,-0.32,0.54,0.50,-0.45,0.15,0.07,0.53,1012.88
1.486,0.28,1.17,-0.32,0.33,0.54,-0.40,0.15,0.07,0.53,1012.88
1.505,0.23,1.26,-0.29,0.33,0.54,-0.40,0.15,0.07,0.53,1012.88
1.512,0.23,1.26,-0.29,0.33,0.54,-0.40,0.15,0.07,0.53,1012.87
1.523,0.23,1.26,-0.29,0.91,2.26,-0.23,0.15,0.07,0.53,1012.87
1.524,0.19,1.36,-0.26,0.91,2.26,-0.23,0.15,0.07,0.53,1012.87
1.525,0.19,1.36,-0.26,0.91,2.26,-0.23,0.12,0.27,0.33,1012.87
1.541,0.14,1.40,-0.33,0.91,2.26,-0.23,0.12,0.27,0.33,1012.87
1.562,0.14,1.42,-0.40,0.91,2.26,-0.23,0.12,0.27,0.33,1012.87
1.564,0.14,1.42,-0.40,0.91,2.26,-0.23,0.03,0.24,0.33,1012.87
1.566,0.14,1.42,-0.40,-0.43,4.36,-0.37,0.03,0.24,0.33,1012.87
1.572,0.14,1.42,-0.40,-0.43,4.36,-0.37,0.03,0.24,0.33,1012.87
1.583,0.25,1.54,-0.34,-0.43,4.36,-0.37,0.03,0.24,0.33,1012.87
1.602,0.28,1.55,-0.25,-0.43,4.36,-0.37,0.03,0.24,0.33,1012.87
1.604,0.28,1.55,-0.25,-0.43,4.36,-0.37,-0.14,0.15,0.24,1012.87
1.605,0.28,1.55,-0.25,-0.53,4.29,-0.42,-0.14,0.15,0.24,1012.87
1.622,-0.24,1.32,-0.16,-0.53,4.29,-0.42,-0.14,0.15,0.24,1012.87
1.631,-0.24,1.32,-0.16,-0.53,4.29,-0.42,-0.14,0.15,0.24,1012.87
1.668,-0.80,1.01,-0.22,-0.53,4.29,-0.42,-0.14,0.15,0.24,1012.87
1.669,-0.80,1.01,-0.22,-0.53,4.29,-0.42,-0.36,0.61,-0.08,1012.87
1.67,-0.80,1.01,-0.22,-1.15,4.94,0.20,-0.36,0.61,-0.08,1012.87
1.671,-0.35,0.84,-0.25,-1.15,4.94,0.20,-0.36,0.61,-0.08,1012.87
1.681,-0.35,0.84,-0.25,-5.63,1.19,-0.51,-0.36,0.61,-0.08,1012.87
1.682,0.20,1.39,-0.45,-5.63,1.19,-0.51,-0.36,0.61,-0.08,1012.87
1.683,0.20,1.39,-0.45,-5.63,1.19,-0.51,-0.37,0.17,1.45,1012.87
1.692,0.20,1.39,-0.45,-5.63,1.19,-0.51,-0.37,0.17,1.45,1012.87
1.701,0.66,1.59,-0.20,-5.63,1.19,-0.51,-0.37,0.17,1.45,1012.87
1.719,0.66,1.38,-0.13,-5.63,1.19,-0.51,-0.37,0.17,1.45,1012.87
1.721,0.66,1.38,-0.13,-5.63,1.19,-0.51,-0.08,0.48,2.64,1012.87
1.721,0.66,1.38,-0.13,-6.54,1.48,-0.59,-0.08,0.48,2.64,1012.87
1.739,-0.08,1.47,-0.45,-6.54,1.48,-0.59,-0.08,0.48,2.64,1012.87
1.75,-0.08,1.47,-0.45,-6.54,1.48,-0.59,-0.08,0.48,2.64,1012.86
1.759,-0.20,1.48,-0.64,-6.54,1.48,-0.59,-0.08,0.48,2.64,1012.86
1.76,-0.20,1.48,-0.64,-6.54,1.48,-0.59,0.14,2.21,2.18,1012.86
1.761,-0.20,1.48,-0.64,-0.33,5.65,-0.43,0.14,2.21,2.18,1012.86
1.778,0.27,1.33,-0.46,-0.33,5.65,-0.43,0.14,2.21,2.18,1012.86
1.798,0.61,1.27,-0.40,-0.33,5.65,-0.43,0.14,2.21,2.18,1012.86
1.799,0.61,1.27,-0.40,-0.33,5.65,-0.43,0.02,1.92,2.55,1012.86
1.799,0.61,1.27,-0.40,-3.14,4.88,-3.08,0.02,1.92,2.55,1012.86
1.81,0.61,1.27,-0.40,-3.14,4.88,-3.08,0.02,1.92,2.55,1012.86
1.818,0.57,1.13,-0.38,-3.14,4.88,-3.08,0.02,1.92,2.55,1012.86
1.838,0.34,0.86,-0.30,-3.14,4.88,-3.08,0.02,1.92,2.55,1012.86
1.839,0.34,0.86,-0.30,-3.14,4.88,-3.08,-0.31,1.13,2.40,1012.86
1.841,0.34,0.86,-0.30,-3.93,5.32,-3.38,-0.31,1.13,2.40,1012.86
1.857,0.22,0.62,-0.30,-3.93,5.32,-3.38,-0.31,1.13,2.40,1012.86
1.871,0.22,0.62,-0.30,-3.93,5.32,-3.38,-0.31,1.13,2.40,1012.84
1.877,0.34,0.52,-0.26,-3.93,5.32,-3.38,-0.31,1.13,2.40,1012.84
1.878,0.34,0.52,-0.26,-3.93,5.32,-3.38,-0.33,0.04,1.64,1012.84
1.879,0.34,0.52,-0.26,-2.92,0.90,-1.73,-0.33,0.04,1.64,1012.84
1.9,0.61,0.47,-0.21,-2.92,0.90,-1.73,-0.33,0.04,1.64,1012.84
1.917,0.67,0.36,-0.19,-2.92,0.90,-1.73,-0.33,0.04,1.64,1012.84
1.917,0.67,0.36,-0.19,-2.92,0.90,-1.73,-0.23,-1.24,1.12,1012.84
1.917,0.67,0.36,-0.19,-1.56,-2.89,-0.42,-0.23,-1.24,1.12,1012.84
1.931,0.67,0.36,-0.19,-1.56,-2.89,-0.42,-0.23,-1.24,1.12,1012.83
1.937,0.57,0.22,-0.16,-1.56,-2.89,-0.42,-0.23,-1.24,1.12,1012.83
1.958,0.52,0.16,-0.14,-1.56,-2.89,-0.42,-0.23,-1.24,1.12,1012.83
1.958,0.52,0.16,-0.14,-1.56,-2.89,-0.42,-0.40,-1.36,0.14,1012.83
1.959,0.52,0.16,-0.14,-1.48,-2.83,-0.17,-0.40,-1.36,0.14,1012.83
1.977,0.57,0.15,-0.16,-1.48,-2.83,-0.17,-0.40,-1.36,0.14,1012.83
1.991,0.57,0.15,-0.16,-1.48,-2.83,-0.17,-0.40,-1.36,0.14,1012.82
1.996,0.62,0.20,-0.17,-1.48,-2.83,-0.17,-0.40,-1.36,0.14,1012.82
1.997,0.62,0.20,-0.17,-1.48,-2.83,-0.17,-0.60,-1.11,-0.84,1012.82
1.998,0.62,0.20,-0.17,-0.98,-5.66,0.60,-0.60,-1.11,-0.84,1012.82
2.018,0.59,0.21,-0.13,-0.98,-5.66,0.60,-0.60,-1.11,-0.84,1012.82
2.037,0.51,0.18,-0.12,-0.98,-5.66,0.60,-0.60,-1.11,-0.84,1012.82
2.038,0.51,0.18,-0.12,-0.98,-5.66,0.60,-0.79,-0.73,-1.59,1012.82
2.039,0.51,0.18,-0.12,-0.22,-5.80,0.63,-0.79,-0.73,-1.59,1012.82
2.053,0.51,0.18,-0.12,-0.22,-5.80,0.63,-0.79,-0.73,-1.59,1012.82
2.061,0.48,0.18,-0.09,-0.22,-5.80,0.63,-0.79,-0.73,-1.59,1012.82
2.075,0.50,0.22,-0.07,-0.22,-5.80,0.63,-0.79,-0.73,-1.59,1012.82
2.076,0.50,0.22,-0.07,-0.22,-5.80,0.63,-0.85,-0.56,-2.08,1012.82
2.077,0.50,0.22,-0.07,0.48,-6.22,0.48,-0.85,-0.56,-2.08,1012.82
2.095,0.49,0.24,-0.04,0.48,-6.22,0.48,-0.85,-0.56,-2.08,1012.82
2.125,0.49,0.24,-0.04,0.48,-6.22,0.48,-0.85,-0.56,-2.08,1012.83
2.128,0.48,0.26,-0.04,0.48,-6.22,0.48,-0.85,-0.56,-2.08,1012.83
2.129,0.48,0.26,-0.04,0.48,-6.22,0.48,-0.73,-0.67,-2.21,1012.83
2.13,0.48,0.26,-0.04,0.41,-6.44,1.03,-0.73,-0.67,-2.21,1012.83
2.159,0.46,0.29,-0.02,0.41,-6.44,1.03,-0.73,-0.67,-2.21,1012.83
2.161,0.42,0.28,-0.05,0.41,-6.44,1.03,-0.73,-0.67,-2.21,1012.83
2.163,0.42,0.28,-0.05,0.41,-6.44,1.03,-0.59,-0.80,-2.11,1012.83
2.164,0.42,0.28,-0.05,0.82,-6.07,1.22,-0.59,-0.80,-2.11,1012.83
2.17,0.42,0.28,-0.05,0.82,-6.07,1.22,-0.59,-0.80,-2.11,1012.82
2.174,0.45,0.27,-0.08,0.82,-6.07,1.22,-0.59,-0.80,-2.11,1012.82
2.193,0.52,0.22,-0.09,0.82,-6.07,1.22,-0.59,-0.80,-2.11,1012.82
2.194,0.52,0.22,-0.09,0.82,-6.07,1.22,-0.41,-1.09,-1.73,1012.82
2.194,0.52,0.22,-0.09,1.47,-6.21,1.20,-0.41,-1.09,-1.73,1012.82
2.213,0.50,0.06,-0.09,1.47,-6.21,1.20,-0.41,-1.09,-1.73,1012.82
2.23,0.50,0.06,-0.09,1.47,-6.21,1.20,-0.41,-1.09,-1.73,1012.82
2.233,0.53,-0.19,-0.08,1.47,-6.21,1.20,-0.41,-1.09,-1.73,1012.82
2.234,0.53,-0.19,-0.08,1.47,-6.21,1.20,-0.14,-1.22,-1.30,1012.82
2.235,0.53,-0.19,-0.08,2.35,-7.15,0.82,-0.14,-1.22,-1.30,1012.82
2.253,1.21,0.67,-0.41,2.35,-7.15,0.82,-0.14,-1.22,-1.30,1012.82
2.273,2.11,4.09,-2.25,2.35,-7.15,0.82,-0.14,-1.22,-1.30,1012.82
2.274,2.11,4.09,-2.25,2.35,-7.15,0.82,1.05,-0.85,0.08,1012.82
2.274,2.11,4.09,-2.25,9.98,5.94,-6.73,1.05,-0.85,0.08,1012.82
2.291,2.11,4.09,-2.25,9.98,5.94,-6.73,1.05,-0.85,0.08,1012.82
2.292,1.27,1.48,0.85,9.98,5.94,-6.73,1.05,-0.85,0.08,1012.82
2.312,-1.32,-0.48,-0.75,9.98,5.94,-6.73,1.05,-0.85,0.08,1012.82
2.313,-1.32,-0.48,-0.75,9.98,5.94,-6.73,0.62,0.24,1.16,1012.82
2.314,-1.32,-0.48,-0.75,9.39,6.02,-6.43,0.62,0.24,1.16,1012.82
2.332,0.20,0.72,-0.28,9.39,6.02,-6.43,0.62,0.24,1.16,1012.82
2.355,0.20,0.72,-0.28,9.39,6.02,-6.43,0.62,0.24,1.16,1012.81
2.357,1.19,1.20,-0.09,9.39,6.02,-6.43,0.62,0.24,1.16,1012.81
2.357,1.19,1.20,-0.09,9.39,6.02,-6.43,0.10,0.59,-0.22,1012.81
2.358,1.19,1.20,-0.09,-2.66,-3.24,1.86,0.10,0.59,-0.22,1012.81
2.372,0.64,1.05,-0.62,-2.66,-3.24,1.86,0.10,0.59,-0.22,1012.81
2.394,0.65,0.89,-0.31,-2.66,-3.24,1.86,0.10,0.59,-0.22,1012.81
2.394,0.65,0.89,-0.31,-2.66,-3.24,1.86,0.26,-1.19,0.34,1012.81
2.395,0.65,0.89,-0.31,4.90,1.45,-0.65,0.26,-1.19,0.34,1012.81
2.415,0.65,0.89,-0.31,4.90,1.45,-0.65,0.26,-1.19,0.34,1012.80
2.416,0.41,0.96,-0.36,4.90,1.45,-0.65,0.26,-1.19,0.34,1012.80
2.431,0.05,0.87,-0.34,4.90,1.45,-0.65,0.26,-1.19,0.34,1012.80
2.432,0.05,0.87,-0.34,4.90,1.45,-0.65,0.05,-0.16,-0.48,1012.80
2.433,0.05,0.87,-0.34,5.00,1.37,-0.60,0.05,-0.16,-0.48,1012.80
2.451,0.17,0.84,-0.26,5.00,1.37,-0.60,0.05,-0.16,-0.48,1012.80
2.47,0.17,0.84,-0.26,5.00,1.37,-0.60,0.05,-0.16,-0.48,1012.81
2.477,0.17,0.84,-0.26,-0.89,-0.19,-0.35,0.05,-0.16,-0.48,1012.81
2.479,0.49,0.97,-0.32,-0.89,-0.19,-0.35,0.05,-0.16,-0.48,1012.81
2.481,0.49,0.97,-0.32,-0.89,-0.19,-0.35,0.00,-0.19,-0.38,1012.81
2.492,0.68,0.99,-0.29,-0.89,-0.19,-0.35,0.00,-0.19,-0.38,1012.81
2.511,0.47,0.88,-0.23,-0.89,-0.19,-0.35,0.00,-0.19,-0.38,1012.81
2.513,0.47,0.88,-0.23,-0.89,-0.19,-0.35,0.03,-0.29,-0.30,1012.81
2.514,0.47,0.88,-0.23,2.52,0.33,0.07,0.03,-0.29,-0.30,1012.81
2.538,0.47,0.88,-0.23,2.52,0.33,0.07,0.03,-0.29,-0.30,1012.82
2.541,0.07,0.83,-0.26,2.52,0.33,0.07,0.03,-0.29,-0.30,1012.82
2.562,0.07,0.83,-0.26,2.75,0.25,0.08,0.03,-0.29,-0.30,1012.82
2.564,0.02,0.89,-0.39,2.75,0.25,0.08,0.03,-0.29,-0.30,1012.82
2.564,0.02,0.89,-0.39,2.75,0.25,0.08,0.05,0.10,-0.80,1012.82
2.569,0.24,0.96,-0.36,2.75,0.25,0.08,0.05,0.10,-0.80,1012.82
2.588,0.34,0.96,-0.33,2.75,0.25,0.08,0.05,0.10,-0.80,1012.82
2.589,0.34,0.96,-0.33,2.75,0.25,0.08,0.06,-0.05,-0.53,1012.82
2.589,0.34,0.96,-0.33,-1.31,-0.34,-0.45,0.06,-0.05,-0.53,1012.82
2.59,0.34,0.96,-0.33,-1.31,-0.34,-0.45,0.06,-0.05,-0.53,1012.82
2.609,0.22,0.90,-0.31,-1.31,-0.34,-0.45,0.06,-0.05,-0.53,1012.82
2.628,0.11,0.89,-0.30,-1.31,-0.34,-0.45,0.06,-0.05,-0.53,1012.82
2.629,0.11,0.89,-0.30,-1.31,-0.34,-0.45,-0.02,0.02,-0.49,1012.82
2.63,0.11,0.89,-0.30,-0.03,-0.16,-0.21,-0.02,0.02,-0.49,1012.82
2.647,0.04,0.93,-0.30,-0.03,-0.16,-0.21,-0.02,0.02,-0.49,1012.82
2.649,0.04,0.93,-0.30,-0.03,-0.16,-0.21,-0.02,0.02,-0.49,1012.82
2.667,0.04,0.94,-0.28,-0.03,-0.16,-0.21,-0.02,0.02,-0.49,1012.82
2.668,0.04,0.94,-0.28,-0.03,-0.16,-0.21,-0.03,0.25,-0.49,1012.82
2.668,0.04,0.94,-0.28,0.11,-0.20,-0.24,-0.03,0.25,-0.49,1012.82
2.687,0.04,0.94,-0.24,0.11,-0.20,-0.24,-0.03,0.25,-0.49,1012.82
2.711,-0.03,0.94,-0.25,0.11,-0.20,-0.24,-0.03,0.25,-0.49,1012.82
2.712,-0.03,0.94,-0.25,-1.60,-0.04,0.13,-0.03,0.25,-0.49,1012.82
2.712,-0.03,0.94,-0.25,-1.60,-0.04,0.13,0.01,0.16,-0.24,1012.82
2.712,-0.03,0.94,-0.25,-1.60,-0.04,0.13,0.01,0.16,-0.24,1012.81
2.737,-0.05,0.95,-0.26,-1.60,-0.04,0.13,0.01,0.16,-0.24,1012.81
2.748,-0.03,0.98,-0.29,-1.60,-0.04,0.13,0.01,0.16,-0.24,1012.81
2.752,-0.03,0.98,-0.29,-1.60,-0.04,0.13,0.09,0.01,-0.01,1012.81
2.753,-0.03,0.98,-0.29,-2.29,0.16,0.23,0.09,0.01,-0.01,1012.81
2.768,-0.00,0.98,-0.36,-2.29,0.16,0.23,0.09,0.01,-0.01,1012.81
2.77,-0.00,0.98,-0.36,-2.29,0.16,0.23,0.09,0.01,-0.01,1012.81
2.787,0.19,1.00,-0.39,-2.29,0.16,0.23,0.09,0.01,-0.01,1012.81
2.79,0.19,1.00,-0.39,-2.29,0.16,0.23,0.15,-0.12,0.27,1012.81
2.791,0.19,1.00,-0.39,-2.34,0.20,0.29,0.15,-0.12,0.27,1012.81
2.808,0.32,1.06,-0.45,-2.34,0.20,0.29,0.15,-0.12,0.27,1012.81
2.837,0.40,1.15,-0.49,-2.34,0.20,0.29,0.15,-0.12,0.27,1012.81
2.84,0.40,1.15,-0.49,-2.34,0.20,0.29,0.09,-0.23,0.40,1012.81
2.842,0.40,1.15,-0.49,-0.44,0.78,-0.97,0.09,-0.23,0.40,1012.81
2.842,0.40,1.15,-0.49,-0.44,0.78,-0.97,0.09,-0.23,0.40,1012.82
2.877,0.50,1.29,-0.39,-0.44,0.78,-0.97,0.09,-0.23,0.40,1012.82
2.88,0.52,1.39,-0.25,-0.44,0.78,-0.97,0.09,-0.23,0.40,1012.82
2.882,0.52,1.39,-0.25,-0.44,0.78,-0.97,-0.10,-0.21,0.20,1012.82
2.883,0.52,1.39,-0.25,2.46,3.31,-0.72,-0.10,-0.21,0.20,1012.82
2.885,0.40,1.51,-0.16,2.46,3.31,-0.72,-0.10,-0.21,0.20,1012.82
2.889,0.40,1.51,-0.16,2.46,3.31,-0.72,-0.10,-0.21,0.20,1012.82
2.906,0.08,1.63,-0.41,2.46,3.31,-0.72,-0.10,-0.21,0.20,1012.82
2.907,0.08,1.63,-0.41,2.46,3.31,-0.72,-0.28,0.16,-0.23,1012.82
2.908,0.08,1.63,-0.41,2.48,3.20,-0.82,-0.28,0.16,-0.23,1012.82
2.927,-0.08,1.66,-0.22,2.48,3.20,-0.82,-0.28,0.16,-0.23,1012.82
2.944,-0.03,1.61,-0.33,2.48,3.20,-0.82,-0.28,0.16,-0.23,1012.82
2.945,-0.03,1.61,-0.33,2.48,3.20,-0.82,-0.43,0.70,-0.48,1012.82
2.946,-0.03,1.61,-0.33,-0.71,6.23,0.06,-0.43,0.70,-0.48,1012.82
2.949,-0.03,1.61,-0.33,-0.71,6.23,0.06,-0.43,0.70,-0.48,1012.82
2.965,-0.71,1.12,-0.30,-0.71,6.23,0.06,-0.43,0.70,-0.48,1012.82
2.985,-0.99,0.84,-0.09,-0.71,6.23,0.06,-0.43,0.70,-0.48,1012.82
2.988,-0.99,0.84,-0.09,-0.71,6.23,0.06,-0.49,0.78,-0.30,1012.82
2.99,-0.99,0.84,-0.09,-7.53,2.08,0.04,-0.49,0.78,-0.30,1012.82
3.005,-0.40,1.32,-0.10,-7.53,2.08,0.04,-0.49,0.78,-0.30,1012.82
3.035,-0.40,1.32,-0.10,-7.53,2.08,0.04,-0.49,0.78,-0.30,1012.83
3.039,0.26,1.58,-0.53,-7.53,2.08,0.04,-0.49,0.78,-0.30,1012.83
3.041,0.26,1.58,-0.53,-7.53,2.08,0.04,-0.24,0.38,2.11,1012.83
3.042,0.26,1.58,-0.53,-8.22,2.21,-0.08,-0.24,0.38,2.11,1012.83
3.044,0.65,1.48,-0.23,-8.22,2.21,-0.08,-0.24,0.38,2.11,1012.83
3.066,0.57,1.27,-0.25,-8.22,2.21,-0.08,-0.24,0.38,2.11,1012.83
3.067,0.57,1.27,-0.25,-8.22,2.21,-0.08,0.47,-0.46,4.28,1012.83
3.068,0.57,1.27,-0.25,-2.36,5.36,-0.29,0.47,-0.46,4.28,1012.83
3.069,0.57,1.27,-0.25,-2.36,5.36,-0.29,0.47,-0.46,4.28,1012.84
3.082,0.41,1.20,-0.57,-2.36,5.36,-0.29,0.47,-0.46,4.28,1012.84
3.102,0.54,1.21,-0.58,-2.36,5.36,-0.29,0.47,-0.46,4.28,1012.84
3.102,0.54,1.21,-0.58,-2.36,5.36,-0.29,0.73,-0.12,4.05,1012.84
3.103,0.54,1.21,-0.58,-0.42,3.86,-1.77,0.73,-0.12,4.05,1012.84
3.122,0.73,1.21,-0.48,-0.42,3.86,-1.77,0.73,-0.12,4.05,1012.84
3.129,0.73,1.21,-0.48,-0.42,3.86,-1.77,0.73,-0.12,4.05,1012.83
3.142,0.63,1.05,-0.40,-0.42,3.86,-1.77,0.73,-0.12,4.05,1012.83
3.143,0.63,1.05,-0.40,-0.42,3.86,-1.77,0.33,0.85,3.28,1012.83
3.143,0.63,1.05,-0.40,-1.49,4.59,-1.84,0.33,0.85,3.28,1012.83
3.161,0.35,0.79,-0.40,-1.49,4.59,-1.84,0.33,0.85,3.28,1012.83
3.181,0.14,0.53,-0.34,-1.49,4.59,-1.84,0.33,0.85,3.28,1012.83
3.183,0.14,0.53,-0.34,-1.49,4.59,-1.84,-0.22,1.54,2.19,1012.83
3.183,0.14,0.53,-0.34,-1.61,3.06,-1.88,-0.22,1.54,2.19,1012.83
3.189,0.14,0.53,-0.34,-1.61,3.06,-1.88,-0.22,1.54,2.19,1012.80
3.201,0.18,0.36,-0.27,-1.61,3.06,-1.88,-0.22,1.54,2.19,1012.80
3.223,0.41,0.34,-0.24,-1.61,3.06,-1.88,-0.22,1.54,2.19,1012.80
3.228,0.41,0.34,-0.24,-1.61,3.06,-1.88,-0.28,0.60,1.29,1012.80
3.229,0.41,0.34,-0.24,-5.09,-2.52,-0.69,-0.28,0.60,1.29,1012.80
3.26,0.49,0.28,-0.19,-5.09,-2.52,-0.69,-0.28,0.60,1.29,1012.80
3.262,0.49,0.28,-0.19,-5.09,-2.52,-0.69,-0.28,0.60,1.29,1012.78
3.263,0.47,0.20,-0.14,-5.09,-2.52,-0.69,-0.28,0.60,1.29,1012.78
3.264,0.47,0.20,-0.14,-5.09,-2.52,-0.69,-0.09,-0.69,0.38,1012.78
3.264,0.47,0.20,-0.14,-5.05,-2.38,-0.50,-0.09,-0.69,0.38,1012.78
3.28,0.46,0.14,-0.14,-5.05,-2.38,-0.50,-0.09,-0.69,0.38,1012.78
3.3,0.47,0.09,-0.20,-5.05,-2.38,-0.50,-0.09,-0.69,0.38,1012.78
3.3,0.47,0.09,-0.20,-5.05,-2.38,-0.50,-0.01,-0.98,-0.84,1012.78
3.302,0.47,0.09,-0.20,-2.47,-4.51,0.97,-0.01,-0.98,-0.84,1012.78
3.313,0.47,0.09,-0.20,-2.47,-4.51,0.97,-0.01,-0.98,-0.84,1012.78
3.322,0.55,0.06,-0.14,-2.47,-4.51,0.97,-0.01,-0.98,-0.84,1012.78
3.339,0.57,0.05,-0.09,-2.47,-4.51,0.97,-0.01,-0.98,-0.84,1012.78
3.34,0.57,0.05,-0.09,-2.47,-4.51,0.97,-0.02,-0.86,-1.90,1012.78
3.341,0.57,0.05,-0.09,-1.29,-6.30,1.33,-0.02,-0.86,-1.90,1012.78
3.359,0.49,0.06,-0.04,-1.29,-6.30,1.33,-0.02,-0.86,-1.90,1012.78
3.37,0.49,0.06,-0.04,-1.29,-6.30,1.33,-0.02,-0.86,-1.90,1012.78
3.381,0.42,0.06,-0.03,-1.29,-6.30,1.33,-0.02,-0.86,-1.90,1012.78
3.385,0.42,0.06,-0.03,-1.29,-6.30,1.33,-0.04,-0.29,-2.74,1012.78
3.387,0.42,0.06,-0.03,-0.46,-6.84,1.37,-0.04,-0.29,-2.74,1012.78
3.402,0.45,0.03,-0.05,-0.46,-6.84,1.37,-0.04,-0.29,-2.74,1012.78
3.423,0.60,0.05,-0.06,-0.46,-6.84,1.37,-0.04,-0.29,-2.74,1012.78
3.425,0.60,0.05,-0.06,-0.46,-6.84,1.37,0.07,-0.10,-3.00,1012.78
3.425,0.60,0.05,-0.06,-0.30,-7.50,2.36,0.07,-0.10,-3.00,1012.78
3.432,0.60,0.05,-0.06,-0.30,-7.50,2.36,0.07,-0.10,-3.00,1012.78
3.438,0.66,0.10,-0.00,-0.30,-7.50,2.36,0.07,-0.10,-3.00,1012.78
3.458,0.48,0.08,0.05,-0.30,-7.50,2.36,0.07,-0.10,-3.00,1012.78
3.459,0.48,0.08,0.05,-0.30,-7.50,2.36,0.07,0.19,-2.89,1012.78
3.459,0.48,0.08,0.05,1.87,-7.59,2.70,0.07,0.19,-2.89,1012.78
3.477,0.31,-0.06,0.05,1.87,-7.59,2.70,0.07,0.19,-2.89,1012.78
3.489,0.31,-0.06,0.05,1.87,-7.59,2.70,0.07,0.19,-2.89,1012.79
3.499,0.45,-0.45,0.09,1.87,-7.59,2.70,0.07,0.19,-2.89,1012.79
3.502,0.45,-0.45,0.09,1.87,-7.59,2.70,-0.00,0.25,-2.51,1012.79
3.504,0.45,-0.45,0.09,2.65,-7.80,2.62,-0.00,0.25,-2.51,1012.79
3.532,1.49,1.44,-1.11,2.65,-7.80,2.62,-0.00,0.25,-2.51,1012.79
3.54,3.30,3.89,-1.64,2.65,-7.80,2.62,-0.00,0.25,-2.51,1012.79
3.542,3.30,3.89,-1.64,2.65,-7.80,2.62,0.91,-0.42,0.19,1012.79
3.542,3.30,3.89,-1.64,4.21,-5.26,-0.19,0.91,-0.42,0.19,1012.79
3.578,3.30,3.89,-1.64,4.21,-5.26,-0.19,0.91,-0.42,0.19,1012.78
3.581,0.71,0.50,1.17,4.21,-5.26,-0.19,0.91,-0.42,0.19,1012.78
3.583,-2.21,-0.23,-1.41,4.21,-5.26,-0.19,0.91,-0.42,0.19,1012.78
3.585,-2.21,-0.23,-1.41,4.21,-5.26,-0.19,0.08,0.19,0.74,1012.78
3.587,-2.21,-0.23,-1.41,2.41,5.31,-3.08,0.08,0.19,0.74,1012.78
3.597,0.16,0.93,-0.10,2.41,5.31,-3.08,0.08,0.19,0.74,1012.78
3.632,0.16,0.93,-0.10,2.41,5.31,-3.08,0.08,0.19,0.74,1012.76
3.635,1.60,1.12,0.06,2.41,5.31,-3.08,0.08,0.19,0.74,1012.76
3.637,1.60,1.12,0.06,2.41,5.31,-3.08,0.03,-0.07,-0.33,1012.76
3.639,1.60,1.12,0.06,2.48,5.18,-3.01,0.03,-0.07,-0.33,1012.76
3.641,1.03,1.02,-0.60,2.48,5.18,-3.01,0.03,-0.07,-0.33,1012.76
3.669,0.63,0.82,-0.37,2.48,5.18,-3.01,0.03,-0.07,-0.33,1012.76
3.673,0.63,0.82,-0.37,2.48,5.18,-3.01,0.20,-1.11,0.55,1012.76
3.676,0.63,0.82,-0.37,5.59,1.68,1.18,0.20,-1.11,0.55,1012.76
3.677,0.63,0.82,-0.37,5.59,1.68,1.18,0.20,-1.11,0.55,1012.76
3.677,0.38,0.95,-0.34,5.59,1.68,1.18,0.20,-1.11,0.55,1012.76
3.697,-0.04,0.82,-0.37,5.59,1.68,1.18,0.20,-1.11,0.55,1012.76
3.698,-0.04,0.82,-0.37,5.59,1.68,1.18,0.08,0.48,-0.76,1012.76
3.699,-0.04,0.82,-0.37,-0.18,-0.03,-0.29,0.08,0.48,-0.76,1012.76
3.732,0.00,0.78,-0.36,-0.18,-0.03,-0.29,0.08,0.48,-0.76,1012.76
3.736,0.00,0.78,-0.36,-0.18,-0.03,-0.29,0.08,0.48,-0.76,1012.77
3.778,0.44,0.94,-0.42,-0.18,-0.03,-0.29,0.08,0.48,-0.76,1012.77
3.782,0.44,0.94,-0.42,-0.18,-0.03,-0.29,0.10,-0.14,-0.54,1012.77
3.783,0.44,0.94,-0.42,0.02,-0.08,-0.24,0.10,-0.14,-0.54,1012.77
3.784,0.76,0.97,-0.41,0.02,-0.08,-0.24,0.10,-0.14,-0.54,1012.77
3.785,0.62,0.89,-0.35,0.02,-0.08,-0.24,0.10,-0.14,-0.54,1012.77
3.786,0.62,0.89,-0.35,0.02,-0.08,-0.24,0.07,-0.47,-0.17,1012.77
3.786,0.62,0.89,-0.35,0.91,0.26,-0.45,0.07,-0.47,-0.17,1012.77
3.789,0.62,0.89,-0.35,0.91,0.26,-0.45,0.07,-0.47,-0.17,1012.76
3.797,0.23,0.84,-0.36,0.91,0.26,-0.45,0.07,-0.47,-0.17,1012.76
3.818,0.07,0.87,-0.39,0.91,0.26,-0.45,0.07,-0.47,-0.17,1012.76
3.819,0.07,0.87,-0.39,0.91,0.26,-0.45,-0.03,0.03,-0.83,1012.76
3.82,0.07,0.87,-0.39,0.24,-0.11,-0.21,-0.03,0.03,-0.83,1012.76
3.858,0.17,0.92,-0.45,0.24,-0.11,-0.21,-0.03,0.03,-0.83,1012.76
3.859,0.17,0.92,-0.45,0.24,-0.11,-0.21,-0.03,0.03,-0.83,1012.75
3.86,0.26,0.92,-0.39,0.24,-0.11,-0.21,-0.03,0.03,-0.83,1012.75
3.861,0.26,0.92,-0.39,0.24,-0.11,-0.21,-0.06,0.04,-0.71,1012.75
3.862,0.26,0.92,-0.39,0.47,-0.19,-0.23,-0.06,0.04,-0.71,1012.75
3.873,0.26,0.92,-0.36,0.47,-0.19,-0.23,-0.06,0.04,-0.71,1012.75
3.893,0.22,0.92,-0.37,0.47,-0.19,-0.23,-0.06,0.04,-0.71,1012.75
3.895,0.22,0.92,-0.37,0.47,-0.19,-0.23,-0.13,-0.12,-0.53,1012.75
3.896,0.22,0.92,-0.37,-0.05,0.24,-0.59,-0.13,-0.12,-0.53,1012.75
3.934,0.22,0.92,-0.37,-0.05,0.24,-0.59,-0.13,-0.12,-0.53,1012.75
3.937,0.16,0.94,-0.32,-0.05,0.24,-0.59,-0.13,-0.12,-0.53,1012.75
3.939,0.05,0.93,-0.30,-0.05,0.24,-0.59,-0.13,-0.12,-0.53,1012.75
3.942,0.05,0.93,-0.30,-0.05,0.24,-0.59,-0.14,0.11,-0.58,1012.75
3.943,0.05,0.93,-0.30,-0.74,0.29,0.08,-0.14,0.11,-0.58,1012.75
3.975,-0.07,0.91,-0.27,-0.74,0.29,0.08,-0.14,0.11,-0.58,1012.75
3.977,-0.07,0.91,-0.27,-0.74,0.29,0.08,-0.14,0.11,-0.58,1012.76
3.978,-0.08,0.88,-0.26,-0.74,0.29,0.08,-0.14,0.11,-0.58,1012.76
3.979,-0.08,0.88,-0.26,-0.74,0.29,0.08,-0.07,0.27,-0.45,1012.76
3.98,-0.08,0.88,-0.26,-0.60,0.24,0.03,-0.07,0.27,-0.45,1012.76
3.993,-0.04,0.88,-0.28,-0.60,0.24,0.03,-0.07,0.27,-0.45,1012.76
4.014,-0.00,0.96,-0.33,-0.60,0.24,0.03,-0.07,0.27,-0.45,1012.76
4.018,-0.00,0.96,-0.33,-0.60,0.24,0.03,0.06,0.11,-0.07,1012.76
4.02,-0.00,0.96,-0.33,-2.54,-0.17,0.62,0.06,0.11,-0.07,1012.76
4.052,-0.00,0.96,-0.33,-2.54,-0.17,0.62,0.06,0.11,-0.07,1012.76
4.059,0.10,0.95,-0.41,-2.54,-0.17,0.62,0.06,0.11,-0.07,1012.76
4.061,0.25,0.96,-0.39,-2.54,-0.17,0.62,0.06,0.11,-0.07,1012.76
4.062,0.25,0.96,-0.39,-2.54,-0.17,0.62,0.10,-0.05,0.25,1012.76
4.062,0.25,0.96,-0.39,-0.90,0.48,-0.38,0.10,-0.05,0.25,1012.76
4.092,0.33,1.10,-0.45,-0.90,0.48,-0.38,0.10,-0.05,0.25,1012.76
4.094,0.33,1.10,-0.45,-0.90,0.48,-0.38,0.10,-0.05,0.25,1012.76
4.095,0.37,1.09,-0.46,-0.90,0.48,-0.38,0.10,-0.05,0.25,1012.76
4.096,0.37,1.09,-0.46,-0.90,0.48,-0.38,0.04,-0.14,0.32,1012.76
4.097,0.37,1.09,-0.46,-0.97,0.50,-0.35,0.04,-0.14,0.32,1012.76
4.112,0.49,1.32,-0.36,-0.97,0.50,-0.35,0.04,-0.14,0.32,1012.76
4.148,0.55,1.45,-0.40,-0.97,0.50,-0.35,0.04,-0.14,0.32,1012.76
4.151,0.55,1.45,-0.40,-0.97,0.50,-0.35,-0.13,-0.15,0.13,1012.76
4.152,0.55,1.45,-0.40,1.77,2.57,-0.84,-0.13,-0.15,0.13,1012.76
4.153,0.55,1.45,-0.40,1.77,2.57,-0.84,-0.13,-0.15,0.13,1012.76
4.155,0.36,1.50,-0.19,1.77,2.57,-0.84,-0.13,-0.15,0.13,1012.76
4.199,0.08,1.49,-0.33,1.77,2.57,-0.84,-0.13,-0.15,0.13,1012.76
4.2,0.08,1.49,-0.33,1.77,2.57,-0.84,-0.26,0.21,-0.29,1012.76
4.201,0.08,1.49,-0.33,1.13,5.43,0.19,-0.26,0.21,-0.29,1012.76
4.202,-0.07,1.46,-0.32,1.13,5.43,0.19,-0.26,0.21,-0.29,1012.76
4.208,-0.07,1.46,-0.32,1.13,5.43,0.19,-0.26,0.21,-0.29,1012.74
4.211,-0.39,1.62,-0.31,1.13,5.43,0.19,-0.26,0.21,-0.29,1012.74
4.213,-0.39,1.62,-0.31,1.13,5.43,0.19,-0.37,0.80,-0.58,1012.74
4.215,-0.39,1.62,-0.31,1.23,5.25,-0.01,-0.37,0.80,-0.58,1012.74
4.237,-1.09,1.12,-0.25,1.23,5.25,-0.01,-0.37,0.80,-0.58,1012.74
4.269,-0.90,0.88,-0.06,1.23,5.25,-0.01,-0.37,0.80,-0.58,1012.74
4.27,-0.90,0.88,-0.06,1.23,5.25,-0.01,-0.46,0.79,-0.06,1012.74
4.271,-0.90,0.88,-0.06,-7.03,4.38,-0.08,-0.46,0.79,-0.06,1012.74
4.271,-0.90,0.88,-0.06,-7.03,4.38,-0.08,-0.46,0.79,-0.06,1012.74
4.272,-0.17,1.58,-0.68,-7.03,4.38,-0.08,-0.46,0.79,-0.06,1012.74
4.292,0.65,1.90,-0.58,-7.03,4.38,-0.08,-0.46,0.79,-0.06,1012.74
4.293,0.65,1.90,-0.58,-7.03,4.38,-0.08,0.15,0.17,3.04,1012.74
4.293,0.65,1.90,-0.58,-4.35,5.16,-1.46,0.15,0.17,3.04,1012.74
4.308,0.96,1.63,-0.22,-4.35,5.16,-1.46,0.15,0.17,3.04,1012.74
4.346,0.96,1.63,-0.22,-4.35,5.16,-1.46,0.15,0.17,3.04,1012.75
4.347,0.52,1.52,-0.57,-4.35,5.16,-1.46,0.15,0.17,3.04,1012.75
4.348,0.52,1.52,-0.57,-4.35,5.16,-1.46,0.63,0.31,4.47,1012.75
4.348,0.52,1.52,-0.57,-5.84,5.81,-1.26,0.63,0.31,4.47,1012.75
4.349,0.25,1.51,-0.49,-5.84,5.81,-1.26,0.63,0.31,4.47,1012.75
4.384,0.50,1.37,-0.58,-5.84,5.81,-1.26,0.63,0.31,4.47,1012.75
4.386,0.50,1.37,-0.58,-5.84,5.81,-1.26,0.64,1.62,3.33,1012.75
4.388,0.50,1.37,-0.58,-0.10,7.34,-1.26,0.64,1.62,3.33,1012.75
4.389,0.59,1.15,-0.41,-0.10,7.34,-1.26,0.64,1.62,3.33,1012.75
4.39,0.59,1.15,-0.41,-0.10,7.34,-1.26,0.64,1.62,3.33,1012.74
4.407,0.38,0.80,-0.22,-0.10,7.34,-1.26,0.64,1.62,3.33,1012.74
4.408,0.38,0.80,-0.22,-0.10,7.34,-1.26,0.15,1.89,2.68,1012.74
4.409,0.38,0.80,-0.22,-1.92,3.62,-1.43,0.15,1.89,2.68,1012.74
4.429,0.29,0.54,-0.28,-1.92,3.62,-1.43,0.15,1.89,2.68,1012.74
4.45,0.32,0.38,-0.13,-1.92,3.62,-1.43,0.15,1.89,2.68,1012.74
4.452,0.32,0.38,-0.13,-1.92,3.62,-1.43,-0.11,0.95,1.64,1012.74
4.454,0.32,0.38,-0.13,-2.42,4.00,-1.70,-0.11,0.95,1.64,1012.74
4.456,0.32,0.38,-0.13,-2.42,4.00,-1.70,-0.11,0.95,1.64,1012.74
4.466,0.37,0.23,-0.05,-2.42,4.00,-1.70,-0.11,0.95,1.64,1012.74
4.486,0.37,0.14,-0.05,-2.42,4.00,-1.70,-0.11,0.95,1.64,1012.74
4.488,0.37,0.14,-0.05,-2.42,4.00,-1.70,-0.15,-0.35,0.55,1012.74
4.489,0.37,0.14,-0.05,-4.05,-2.91,0.81,-0.15,-0.35,0.55,1012.74
4.505,0.37,0.08,-0.03,-4.05,-2.91,0.81,-0.15,-0.35,0.55,1012.74
4.508,0.37,0.08,-0.03,-4.05,-2.91,0.81,-0.15,-0.35,0.55,1012.72
4.529,0.43,0.02,-0.02,-4.05,-2.91,0.81,-0.15,-0.35,0.55,1012.72
4.531,0.43,0.02,-0.02,-4.05,-2.91,0.81,-0.28,-1.11,-0.67,1012.72
4.532,0.43,0.02,-0.02,-3.10,-6.00,2.20,-0.28,-1.11,-0.67,1012.72
4.549,0.46,-0.03,0.00,-3.10,-6.00,2.20,-0.28,-1.11,-0.67,1012.72
4.565,0.37,-0.08,0.05,-3.10,-6.00,2.20,-0.28,-1.11,-0.67,1012.72
4.568,0.37,-0.08,0.05,-3.10,-6.00,2.20,-0.54,-0.96,-1.89,1012.72
4.57,0.37,-0.08,0.05,-2.43,-6.44,2.26,-0.54,-0.96,-1.89,1012.72
4.572,0.37,-0.08,0.05,-2.43,-6.44,2.26,-0.54,-0.96,-1.89,1012.70
4.585,0.28,-0.15,0.04,-2.43,-6.44,2.26,-0.54,-0.96,-1.89,1012.70
4.605,0.33,-0.22,0.02,-2.43,-6.44,2.26,-0.54,-0.96,-1.89,1012.70
4.608,0.33,-0.22,0.02,-2.43,-6.44,2.26,-0.69,-0.58,-2.87,1012.70
4.612,0.33,-0.22,0.02,-1.66,-8.66,2.74,-0.69,-0.58,-2.87,1012.70
4.639,0.49,-0.26,0.04,-1.66,-8.66,2.74,-0.69,-0.58,-2.87,1012.70
4.642,0.49,-0.26,0.04,-1.66,-8.66,2.74,-0.69,-0.58,-2.87,1012.69
4.677,0.46,-0.31,0.13,-1.66,-8.66,2.74,-0.69,-0.58,-2.87,1012.69
4.68,0.46,-0.31,0.13,-1.66,-8.66,2.74,-0.60,-0.25,-3.34,1012.69
4.682,0.46,-0.31,0.13,-0.05,-10.89,2.88,-0.60,-0.25,-3.34,1012.69
4.683,0.20,-0.48,0.13,-0.05,-10.89,2.88,-0.60,-0.25,-3.34,1012.69
4.684,0.20,-0.48,0.13,1.10,-11.23,2.69,-0.60,-0.25,-3.34,1012.69
4.685,0.26,-1.01,0.09,1.10,-11.23,2.69,-0.60,-0.25,-3.34,1012.69
4.686,0.26,-1.01,0.09,1.10,-11.23,2.69,-0.37,0.18,-3.48,1012.69
4.688,0.26,-1.01,0.09,1.10,-11.23,2.69,-0.37,0.18,-3.48,1012.70
4.703,1.50,1.03,-1.58,1.10,-11.23,2.69,-0.37,0.18,-3.48,1012.70
4.723,3.04,3.30,-2.70,1.10,-11.23,2.69,-0.37,0.18,-3.48,1012.70
4.725,3.04,3.30,-2.70,1.10,-11.23,2.69,1.18,-0.70,0.02,1012.70
4.753,3.04,3.30,-2.70,3.34,-9.83,-1.86,1.18,-0.70,0.02,1012.70
4.754,2.22,1.30,2.94,3.34,-9.83,-1.86,1.18,-0.70,0.02,1012.70
4.755,2.22,1.30,2.94,3.34,-9.83,-1.86,1.18,-0.70,0.02,1012.70
4.762,-0.97,0.05,-2.50,3.34,-9.83,-1.86,1.18,-0.70,0.02,1012.70
4.763,-0.97,0.05,-2.50,3.34,-9.83,-1.86,0.29,-1.63,3.17,1012.70
4.764,-0.97,0.05,-2.50,9.93,7.18,-4.43,0.29,-1.63,3.17,1012.70
4.782,-0.39,0.79,0.01,9.93,7.18,-4.43,0.29,-1.63,3.17,1012.70
4.803,-0.39,0.79,0.01,9.96,6.96,-4.36,0.29,-1.63,3.17,1012.70
4.806,1.31,0.79,0.18,9.96,6.96,-4.36,0.29,-1.63,3.17,1012.70
4.808,1.31,0.79,0.18,9.96,6.96,-4.36,0.33,0.66,-0.85,1012.70
4.81,1.31,0.79,0.18,9.96,6.96,-4.36,0.33,0.66,-0.85,1012.72
4.828,1.04,0.92,-0.62,9.96,6.96,-4.36,0.33,0.66,-0.85,1012.72
4.842,0.72,0.87,-0.42,9.96,6.96,-4.36,0.33,0.66,-0.85,1012.72
4.845,0.72,0.87,-0.42,9.96,6.96,-4.36,0.32,-0.62,0.36,1012.72
4.846,0.72,0.87,-0.42,2.29,0.03,1.83,0.32,-0.62,0.36,1012.72
4.863,0.49,0.87,-0.46,2.29,0.03,1.83,0.32,-0.62,0.36,1012.72
4.868,0.49,0.87,-0.46,2.29,0.03,1.83,0.32,-0.62,0.36,1012.73
4.881,0.10,0.79,-0.41,2.29,0.03,1.83,0.32,-0.62,0.36,1012.73
4.882,0.10,0.79,-0.41,2.29,0.03,1.83,0.23,0.21,-0.62,1012.73
4.883,0.10,0.79,-0.41,0.32,0.07,-0.93,0.23,0.21,-0.62,1012.73
4.902,0.05,0.83,-0.35,0.32,0.07,-0.93,0.23,0.21,-0.62,1012.73
4.93,0.36,0.88,-0.40,0.32,0.07,-0.93,0.23,0.21,-0.62,1012.73
4.933,0.36,0.88,-0.40,0.32,0.07,-0.93,0.12,-0.30,-0.58,1012.73
4.935,0.36,0.88,-0.40,0.54,-0.00,-0.83,0.12,-0.30,-0.58,1012.73
4.937,0.36,0.88,-0.40,0.54,-0.00,-0.83,0.12,-0.30,-0.58,1012.72
4.941,0.73,0.93,-0.38,0.54,-0.00,-0.83,0.12,-0.30,-0.58,1012.72
4.97,0.77,0.90,-0.30,0.54,-0.00,-0.83,0.12,-0.30,-0.58,1012.72
4.972,0.77,0.90,-0.30,0.11,0.31,-0.15,0.12,-0.30,-0.58,1012.72
4.973,0.77,0.90,-0.30,0.11,0.31,-0.15,0.11,-0.63,-0.10,1012.72
4.979,0.41,0.80,-0.34,0.11,0.31,-0.15,0.11,-0.63,-0.10,1012.72
4.987,0.41,0.80,-0.34,0.11,0.31,-0.15,0.11,-0.63,-0.10,1012.72
5.0,0.09,0.81,-0.46,0.11,0.31,-0.15,0.11,-0.63,-0.10,1012.72
5.002,0.09,0.81,-0.46,0.11,0.31,-0.15,0.11,0.18,-0.74,1012.72
5.006,0.09,0.81,-0.46,0.70,-0.17,-0.07,0.11,0.18,-0.74,1012.72
5.022,0.12,0.86,-0.51,0.70,-0.17,-0.07,0.11,0.18,-0.74,1012.72
5.054,0.33,0.91,-0.43,0.70,-0.17,-0.07,0.11,0.18,-0.74,1012.72
5.055,0.33,0.91,-0.43,0.70,-0.17,-0.07,0.07,0.32,-0.71,1012.72
5.056,0.33,0.91,-0.43,0.88,-0.24,-0.08,0.07,0.32,-0.71,1012.72
5.056,0.33,0.91,-0.43,0.88,-0.24,-0.08,0.07,0.32,-0.71,1012.72
5.058,0.39,0.89,-0.39,0.88,-0.24,-0.08,0.07,0.32,-0.71,1012.72
5.079,0.31,0.85,-0.39,0.88,-0.24,-0.08,0.07,0.32,-0.71,1012.72
5.081,0.31,0.85,-0.39,0.88,-0.24,-0.08,-0.09,-0.17,-0.44,1012.72
5.082,0.31,0.85,-0.39,-0.29,0.18,-0.83,-0.09,-0.17,-0.44,1012.72
5.099,0.24,0.88,-0.37,-0.29,0.18,-0.83,-0.09,-0.17,-0.44,1012.72
5.109,0.24,0.88,-0.37,-0.29,0.18,-0.83,-0.09,-0.17,-0.44,1012.73
5.119,0.20,0.91,-0.39,-0.29,0.18,-0.83,-0.09,-0.17,-0.44,1012.73
5.122,0.20,0.91,-0.39,-0.29,0.18,-0.83,-0.12,-0.02,-0.58,1012.73
5.124,0.20,0.91,-0.39,-0.43,0.04,-0.31,-0.12,-0.02,-0.58,1012.73
5.147,0.18,0.90,-0.33,-0.43,0.04,-0.31,-0.12,-0.02,-0.58,1012.73
5.158,0.13,0.89,-0.29,-0.43,0.04,-0.31,-0.12,-0.02,-0.58,1012.73
5.159,0.13,0.89,-0.29,-0.43,0.04,-0.31,-0.13,0.30,-0.49,1012.73
5.159,0.13,0.89,-0.29,-0.29,-0.04,-0.38,-0.13,0.30,-0.49,1012.73
5.193,0.13,0.89,-0.29,-0.29,-0.04,-0.38,-0.13,0.30,-0.49,1012.72
5.198,0.02,0.91,-0.29,-0.29,-0.04,-0.38,-0.13,0.30,-0.49,1012.72
5.201,0.02,0.91,-0.29,-1.52,0.07,0.37,-0.13,0.30,-0.49,1012.72
5.203,-0.02,0.94,-0.31,-1.52,0.07,0.37,-0.13,0.30,-0.49,1012.72
5.204,-0.02,0.94,-0.31,-1.52,0.07,0.37,-0.07,0.19,-0.33,1012.72
5.218,0.01,0.94,-0.37,-1.52,0.07,0.37,-0.07,0.19,-0.33,1012.72
5.243,0.01,0.94,-0.37,-1.52,0.07,0.37,-0.07,0.19,-0.33,1012.71
5.246,0.14,0.94,-0.37,-1.52,0.07,0.37,-0.07,0.19,-0.33,1012.71
5.247,0.14,0.94,-0.37,-1.52,0.07,0.37,0.00,-0.07,0.04,1012.71
5.249,0.14,0.94,-0.37,-2.17,0.45,-0.03,0.00,-0.07,0.04,1012.71
5.274,0.34,0.96,-0.38,-2.17,0.45,-0.03,0.00,-0.07,0.04,1012.71
5.283,0.46,1.01,-0.42,-2.17,0.45,-0.03,0.00,-0.07,0.04,1012.71
5.285,0.46,1.01,-0.42,-2.17,0.45,-0.03,-0.02,-0.36,0.33,1012.71
5.286,0.46,1.01,-0.42,-2.20,0.48,0.00,-0.02,-0.36,0.33,1012.71
5.288,0.46,1.01,-0.42,-2.20,0.48,0.00,-0.02,-0.36,0.33,1012.70
5.295,0.46,1.10,-0.46,-2.20,0.48,0.00,-0.02,-0.36,0.33,1012.70
5.316,0.46,1.18,-0.40,-2.20,0.48,0.00,-0.02,-0.36,0.33,1012.70
5.317,0.46,1.18,-0.40,-2.20,0.48,0.00,-0.13,-0.23,0.20,1012.70
5.318,0.46,1.18,-0.40,1.42,1.32,-0.75,-0.13,-0.23,0.20,1012.70
5.345,0.44,1.29,-0.34,1.42,1.32,-0.75,-0.13,-0.23,0.20,1012.70
5.348,0.44,1.29,-0.34,1.42,1.32,-0.75,-0.13,-0.23,0.20,1012.70
5.356,0.37,1.38,-0.26,1.42,1.32,-0.75,-0.13,-0.23,0.20,1012.70
5.357,0.37,1.38,-0.26,1.42,1.32,-0.75,-0.28,0.10,-0.11,1012.70
5.359,0.37,1.38,-0.26,1.50,3.74,0.02,-0.28,0.10,-0.11,1012.70
5.382,0.23,1.45,-0.26,1.50,3.74,0.02,-0.28,0.10,-0.11,1012.70
5.397,0.00,1.47,-0.32,1.50,3.74,0.02,-0.28,0.10,-0.11,1012.70
5.399,0.00,1.47,-0.32,1.50,3.74,0.02,-0.38,0.24,-0.39,1012.70
5.401,0.00,1.47,-0.32,1.58,3.59,-0.13,-0.38,0.24,-0.39,1012.70
5.407,0.00,1.47,-0.32,1.58,3.59,-0.13,-0.38,0.24,-0.39,1012.71
5.414,-0.18,1.60,-0.10,1.58,3.59,-0.13,-0.38,0.24,-0.39,1012.71
5.458,-0.49,1.44,-0.12,1.58,3.59,-0.13,-0.38,0.24,-0.39,1012.71
5.461,-0.49,1.44,-0.12,1.58,3.59,-0.13,-0.42,0.23,-0.46,1012.71
5.463,-0.49,1.44,-0.12,-2.26,5.60,0.71,-0.42,0.23,-0.46,1012.71
5.464,-0.70,0.94,-0.24,-2.26,5.60,0.71,-0.42,0.23,-0.46,1012.71
5.49,-0.70,0.94,-0.24,-2.26,5.60,0.71,-0.42,0.23,-0.46,1012.71
5.493,-0.12,1.04,-0.70,-2.26,5.60,0.71,-0.42,0.23,-0.46,1012.71
5.493,-0.12,1.04,-0.70,-2.26,5.60,0.71,-0.30,0.27,0.80,1012.71
5.494,-0.12,1.04,-0.70,-6.91,2.03,-0.64,-0.30,0.27,0.80,1012.71
5.494,0.62,1.56,-0.29,-6.91,2.03,-0.64,-0.30,0.27,0.80,1012.71
5.518,0.90,1.36,-0.15,-6.91,2.03,-0.64,-0.30,0.27,0.80,1012.71
5.519,0.90,1.36,-0.15,-6.91,2.03,-0.64,0.06,-0.56,3.48,1012.71
5.52,0.90,1.36,-0.15,-7.95,2.43,-0.54,0.06,-0.56,3.48,1012.71
5.533,0.90,1.36,-0.15,-7.95,2.43,-0.54,0.06,-0.56,3.48,1012.70
5.533,0.61,1.31,-0.61,-7.95,2.43,-0.54,0.06,-0.56,3.48,1012.70
5.552,0.32,1.39,-0.54,-7.95,2.43,-0.54,0.06,-0.56,3.48,1012.70
5.552,0.32,1.39,-0.54,-7.95,2.43,-0.54,0.65,0.37,3.84,1012.70
5.553,0.32,1.39,-0.54,1.97,5.70,-0.35,0.65,0.37,3.84,1012.70
5.571,0.51,1.33,-0.49,1.97,5.70,-0.35,0.65,0.37,3.84,1012.70
5.587,0.51,1.33,-0.49,1.97,5.70,-0.35,0.65,0.37,3.84,1012.69
5.592,0.67,1.18,-0.56,1.97,5.70,-0.35,0.65,0.37,3.84,1012.69
5.593,0.67,1.18,-0.56,1.97,5.70,-0.35,0.76,1.17,3.74,1012.69
5.594,0.67,1.18,-0.56,-1.35,5.47,-2.10,0.76,1.17,3.74,1012.69
5.612,0.55,0.93,-0.45,-1.35,5.47,-2.10,0.76,1.17,3.74,1012.69
5.638,0.43,0.69,-0.38,-1.35,5.47,-2.10,0.76,1.17,3.74,1012.69
5.639,0.43,0.69,-0.38,-1.35,5.47,-2.10,0.54,0.68,3.37,1012.69
5.64,0.43,0.69,-0.38,-2.30,6.33,-2.10,0.54,0.68,3.37,1012.69
5.671,0.43,0.69,-0.38,-2.30,6.33,-2.10,0.54,0.68,3.37,1012.69
5.673,0.44,0.57,-0.44,-2.30,6.33,-2.10,0.54,0.68,3.37,1012.69
5.674,0.42,0.43,-0.37,-2.30,6.33,-2.10,0.54,0.68,3.37,1012.69
5.674,0.42,0.43,-0.37,-2.30,6.33,-2.10,0.35,0.18,2.47,1012.69
5.675,0.42,0.43,-0.37,-3.12,1.48,-1.02,0.35,0.18,2.47,1012.69
5.691,0.43,0.29,-0.27,-3.12,1.48,-1.02,0.35,0.18,2.47,1012.69
5.707,0.43,0.29,-0.27,-3.12,1.48,-1.02,0.35,0.18,2.47,1012.68
5.714,0.46,0.23,-0.29,-3.12,1.48,-1.02,0.35,0.18,2.47,1012.68
5.715,0.46,0.23,-0.29,-3.12,1.48,-1.02,0.11,-0.35,1.46,1012.68
5.716,0.46,0.23,-0.29,-3.70,-2.06,0.22,0.11,-0.35,1.46,1012.68
5.732,0.44,0.16,-0.27,-3.70,-2.06,0.22,0.11,-0.35,1.46,1012.68
5.768,0.48,0.12,-0.23,-3.70,-2.06,0.22,0.11,-0.35,1.46,1012.68
5.771,0.48,0.12,-0.23,-3.70,-2.06,0.22,-0.14,-0.82,0.25,1012.68
5.773,0.48,0.12,-0.23,-3.58,-1.97,0.45,-0.14,-0.82,0.25,1012.68
5.774,0.48,0.12,-0.23,-3.58,-1.97,0.45,-0.14,-0.82,0.25,1012.67
5.776,0.52,0.12,-0.21,-3.58,-1.97,0.45,-0.14,-0.82,0.25,1012.67
5.8,0.48,0.13,-0.18,-3.58,-1.97,0.45,-0.14,-0.82,0.25,1012.67
5.802,0.48,0.13,-0.18,-3.58,-1.97,0.45,-0.44,-0.77,-1.01,1012.67
5.802,0.48,0.13,-0.18,-2.77,-4.08,1.30,-0.44,-0.77,-1.01,1012.67
5.809,0.45,0.13,-0.14,-2.77,-4.08,1.30,-0.44,-0.77,-1.01,1012.67
5.827,0.45,0.13,-0.14,-2.77,-4.08,1.30,-0.44,-0.77,-1.01,1012.66
5.835,0.51,0.12,-0.11,-2.77,-4.08,1.30,-0.44,-0.77,-1.01,1012.66
5.835,0.51,0.12,-0.11,-2.77,-4.08,1.30,-0.70,-0.42,-2.15,1012.66
5.836,0.51,0.12,-0.11,-2.20,-4.77,2.09,-0.70,-0.42,-2.15,1012.66
5.866,0.56,0.14,-0.06,-2.20,-4.77,2.09,-0.70,-0.42,-2.15,1012.66
5.869,0.56,0.14,-0.05,-2.20,-4.77,2.09,-0.70,-0.42,-2.15,1012.66
5.87,0.56,0.14,-0.05,-2.20,-4.77,2.09,-0.80,0.08,-2.96,1012.66
5.87,0.56,0.14,-0.05,-1.43,-5.55,1.84,-0.80,0.08,-2.96,1012.66
5.887,0.56,0.14,-0.05,-1.43,-5.55,1.84,-0.80,0.08,-2.96,1012.66
5.888,0.56,0.11,-0.06,-1.43,-5.55,1.84,-0.80,0.08,-2.96,1012.66
5.909,0.56,0.16,-0.02,-1.43,-5.55,1.84,-0.80,0.08,-2.96,1012.66
5.914,0.56,0.16,-0.02,-1.43,-5.55,1.84,-0.68,0.83,-3.45,1012.66
5.916,0.56,0.16,-0.02,0.23,-6.25,2.32,-0.68,0.83,-3.45,1012.66
5.929,0.50,0.24,-0.00,0.23,-6.25,2.32,-0.68,0.83,-3.45,1012.66
5.95,0.50,0.24,-0.00,0.31,-6.17,2.19,-0.68,0.83,-3.45,1012.66
5.953,0.50,0.24,-0.00,0.31,-6.17,2.19,-0.68,0.83,-3.45,1012.67
5.954,0.35,0.21,-0.05,0.31,-6.17,2.19,-0.68,0.83,-3.45,1012.67
5.956,0.35,0.21,-0.05,0.31,-6.17,2.19,-0.45,1.29,-3.51,1012.67
5.982,0.35,0.14,-0.08,0.31,-6.17,2.19,-0.45,1.29,-3.51,1012.67
5.99,0.53,0.07,-0.04,0.31,-6.17,2.19,-0.45,1.29,-3.51,1012.67
5.992,0.53,0.07,-0.04,0.31,-6.17,2.19,-0.23,0.71,-2.94,1012.67
5.994,0.53,0.07,-0.04,1.20,-6.53,1.97,-0.23,0.71,-2.94,1012.67
6.012,0.53,0.07,-0.04,1.20,-6.53,1.97,-0.23,0.71,-2.94,1012.67
6.014,1.06,0.56,-0.44,1.20,-6.53,1.97,-0.23,0.71,-2.94,1012.67
6.027,2.64,2.19,-1.83,1.20,-6.53,1.97,-0.23,0.71,-2.94,1012.67
6.028,2.64,2.19,-1.83,1.20,-6.53,1.97,0.50,-0.01,-0.82,1012.67
6.029,2.64,2.19,-1.83,3.16,-5.92,0.55,0.50,-0.01,-0.82,1012.67
6.063,2.00,1.26,1.00,3.16,-5.92,0.55,0.50,-0.01,-0.82,1012.67
6.068,2.00,1.26,1.00,3.16,-5.92,0.55,0.50,-0.01,-0.82,1012.67
6.07,-1.07,-0.23,0.12,3.16,-5.92,0.55,0.50,-0.01,-0.82,1012.67
6.073,-1.07,-0.23,0.12,3.16,-5.92,0.55,0.28,-1.03,1.85,1012.67
6.075,-1.07,-0.23,0.12,7.82,2.28,0.30,0.28,-1.03,1.85,1012.67
6.086,-1.23,1.22,-1.62,7.82,2.28,0.30,0.28,-1.03,1.85,1012.67
6.105,1.07,1.04,0.31,7.82,2.28,0.30,0.28,-1.03,1.85,1012.67
6.106,1.07,1.04,0.31,7.82,2.28,0.30,0.48,0.33,-0.79,1012.67
6.107,1.07,1.04,0.31,7.90,2.18,0.40,0.48,0.33,-0.79,1012.67
6.125,1.29,0.84,-0.22,7.90,2.18,0.40,0.48,0.33,-0.79,1012.67
6.127,1.29,0.84,-0.22,7.90,2.18,0.40,0.48,0.33,-0.79,1012.67
6.148,0.85,0.94,-0.54,7.90,2.18,0.40,0.48,0.33,-0.79,1012.67
6.15,0.85,0.94,-0.54,7.90,2.18,0.40,0.28,-1.44,1.08,1012.67
6.151,0.85,0.94,-0.54,-0.22,1.96,-1.95,0.28,-1.44,1.08,1012.67
6.178,0.64,0.89,-0.36,-0.22,1.96,-1.95,0.28,-1.44,1.08,1012.67
6.185,0.39,0.82,-0.46,-0.22,1.96,-1.95,0.28,-1.44,1.08,1012.67
6.186,0.39,0.82,-0.46,-0.22,1.96,-1.95,0.27,0.04,-0.13,1012.67
6.186,0.39,0.82,-0.46,2.27,0.53,-1.28,0.27,0.04,-0.13,1012.67
6.187,0.39,0.82,-0.46,2.27,0.53,-1.28,0.27,0.04,-0.13,1012.67
6.204,0.19,0.78,-0.40,2.27,0.53,-1.28,0.27,0.04,-0.13,1012.67
6.225,0.24,0.84,-0.38,2.27,0.53,-1.28,0.27,0.04,-0.13,1012.67
6.226,0.24,0.84,-0.38,2.27,0.53,-1.28,0.16,0.09,-0.60,1012.67
6.227,0.24,0.84,-0.38,2.41,0.45,-1.23,0.16,0.09,-0.60,1012.67
6.245,0.52,0.92,-0.38,2.41,0.45,-1.23,0.16,0.09,-0.60,1012.67
6.248,0.52,0.92,-0.38,2.41,0.45,-1.23,0.16,0.09,-0.60,1012.68
6.272,0.65,0.91,-0.31,2.41,0.45,-1.23,0.16,0.09,-0.60,1012.68
6.273,0.65,0.91,-0.31,2.41,0.45,-1.23,0.12,-0.63,-0.22,1012.68
6.274,0.65,0.91,-0.31,-0.49,0.02,-0.43,0.12,-0.63,-0.22,1012.68
6.283,0.57,0.85,-0.32,-0.49,0.02,-0.43,0.12,-0.63,-0.22,1012.68
6.304,0.37,0.85,-0.37,-0.49,0.02,-0.43,0.12,-0.63,-0.22,1012.68
6.305,0.37,0.85,-0.37,-0.49,0.02,-0.43,0.12,-0.09,-0.49,1012.68
6.307,0.37,0.85,-0.37,1.73,0.25,0.11,0.12,-0.09,-0.49,1012.68
6.307,0.37,0.85,-0.37,1.73,0.25,0.11,0.12,-0.09,-0.49,1012.68
6.323,0.23,0.86,-0.42,1.73,0.25,0.11,0.12,-0.09,-0.49,1012.68
6.348,0.26,0.87,-0.44,1.73,0.25,0.11,0.12,-0.09,-0.49,1012.68
6.351,0.26,0.87,-0.44,1.73,0.25,0.11,0.14,0.20,-0.77,1012.68
6.352,0.26,0.87,-0.44,1.92,0.17,0.13,0.14,0.20,-0.77,1012.68
6.389,0.34,0.89,-0.45,1.92,0.17,0.13,0.14,0.20,-0.77,1012.68
6.392,0.34,0.89,-0.45,1.92,0.17,0.13,0.14,0.20,-0.77,1012.68
6.393,0.34,0.88,-0.40,1.92,0.17,0.13,0.14,0.20,-0.77,1012.68
6.395,0.34,0.88,-0.40,1.92,0.17,0.13,0.06,0.06,-0.62,1012.68
6.397,0.34,0.88,-0.40,-0.34,0.09,-0.85,0.06,0.06,-0.62,1012.68
6.403,0.32,0.87,-0.38,-0.34,0.09,-0.85,0.06,0.06,-0.62,1012.68
6.423,0.32,0.87,-0.37,-0.34,0.09,-0.85,0.06,0.06,-0.62,1012.68
6.425,0.32,0.87,-0.37,-0.34,0.09,-0.85,-0.04,-0.00,-0.67,1012.68
6.427,0.32,0.87,-0.37,0.35,0.03,-0.30,-0.04,-0.00,-0.67,1012.68
6.428,0.32,0.87,-0.37,0.35,0.03,-0.30,-0.04,-0.00,-0.67,1012.68
6.447,0.29,0.90,-0.35,0.35,0.03,-0.30,-0.04,-0.00,-0.67,1012.68
6.463,0.22,0.90,-0.35,0.35,0.03,-0.30,-0.04,-0.00,-0.67,1012.68
6.464,0.22,0.90,-0.35,0.35,0.03,-0.30,-0.07,0.13,-0.75,1012.68
6.465,0.22,0.90,-0.35,0.58,-0.06,-0.33,-0.07,0.13,-0.75,1012.68
6.487,0.16,0.88,-0.36,0.58,-0.06,-0.33,-0.07,0.13,-0.75,1012.68
6.488,0.16,0.88,-0.36,0.58,-0.06,-0.33,-0.07,0.13,-0.75,1012.67
6.501,0.14,0.88,-0.34,0.58,-0.06,-0.33,-0.07,0.13,-0.75,1012.67
6.502,0.14,0.88,-0.34,0.58,-0.06,-0.33,-0.05,0.26,-0.76,1012.67
6.503,0.14,0.88,-0.34,-0.21,0.01,-0.07,-0.05,0.26,-0.76,1012.67
6.521,0.11,0.90,-0.36,-0.21,0.01,-0.07,-0.05,0.26,-0.76,1012.67
6.557,0.02,0.91,-0.35,-0.21,0.01,-0.07,-0.05,0.26,-0.76,1012.67
6.558,0.02,0.91,-0.35,-0.21,0.01,-0.07,-0.04,0.32,-0.62,1012.67
6.559,0.02,0.91,-0.35,-1.32,0.01,-0.12,-0.04,0.32,-0.62,1012.67
6.56,0.02,0.91,-0.35,-1.32,0.01,-0.12,-0.04,0.32,-0.62,1012.68
6.57,-0.05,0.91,-0.29,-1.32,0.01,-0.12,-0.04,0.32,-0.62,1012.68
6.58,-0.07,0.91,-0.33,-1.32,0.01,-0.12,-0.04,0.32,-0.62,1012.68
6.582,-0.07,0.91,-0.33,-1.32,0.01,-0.12,-0.03,0.23,-0.41,1012.68
6.583,-0.07,0.91,-0.33,-1.19,-0.02,-0.14,-0.03,0.23,-0.41,1012.68
6.599,-0.03,0.92,-0.35,-1.19,-0.02,-0.14,-0.03,0.23,-0.41,1012.68
6.607,-0.03,0.92,-0.35,-1.19,-0.02,-0.14,-0.03,0.23,-0.41,1012.67
6.62,0.05,0.93,-0.31,-1.19,-0.02,-0.14,-0.03,0.23,-0.41,1012.67
6.621,0.05,0.93,-0.31,-1.19,-0.02,-0.14,0.03,0.09,-0.02,1012.67
6.621,0.05,0.93,-0.31,-2.52,0.10,0.12,0.03,0.09,-0.02,1012.67
6.639,0.08,0.95,-0.32,-2.52,0.10,0.12,0.03,0.09,-0.02,1012.67
6.672,0.05,0.95,-0.40,-2.52,0.10,0.12,0.03,0.09,-0.02,1012.67
6.674,0.05,0.95,-0.40,-2.52,0.10,0.12,0.07,0.03,0.30,1012.67
6.675,0.05,0.95,-0.40,-1.52,0.44,-0.05,0.07,0.03,0.30,1012.67
6.676,0.05,0.95,-0.40,-1.52,0.44,-0.05,0.07,0.03,0.30,1012.67
6.681,0.07,0.90,-0.44,-1.52,0.44,-0.05,0.07,0.03,0.30,1012.67
6.7,0.07,0.90,-0.44,-1.69,0.48,-0.06,0.07,0.03,0.30,1012.67
6.702,0.23,0.93,-0.32,-1.69,0.48,-0.06,0.07,0.03,0.30,1012.67
6.702,0.23,0.93,-0.32,-1.69,0.48,-0.06,0.03,0.20,0.50,1012.67
6.719,0.31,0.97,-0.33,-1.69,0.48,-0.06,0.03,0.20,0.50,1012.67
6.726,0.31,0.97,-0.33,-1.69,0.48,-0.06,0.03,0.20,0.50,1012.67
6.745,0.28,0.96,-0.46,-1.69,0.48,-0.06,0.03,0.20,0.50,1012.67
6.748,0.28,0.96,-0.46,-1.69,0.48,-0.06,-0.03,0.02,0.62,1012.67
6.75,0.28,0.96,-0.46,-0.49,0.47,-0.25,-0.03,0.02,0.62,1012.67
6.758,0.36,1.00,-0.45,-0.49,0.47,-0.25,-0.03,0.02,0.62,1012.67
6.784,0.53,1.10,-0.36,-0.49,0.47,-0.25,-0.03,0.02,0.62,1012.67
6.787,0.53,1.10,-0.36,-0.49,0.47,-0.25,-0.12,0.02,0.53,1012.67
6.788,0.53,1.10,-0.36,1.12,1.31,-0.88,-0.12,0.02,0.53,1012.67
6.789,0.53,1.10,-0.36,1.12,1.31,-0.88,-0.12,0.02,0.53,1012.68
6.798,0.55,1.25,-0.50,1.12,1.31,-0.88,-0.12,0.02,0.53,1012.68
6.818,0.52,1.37,-0.49,1.12,1.31,-0.88,-0.12,0.02,0.53,1012.68
6.82,0.52,1.37,-0.49,1.12,1.31,-0.88,-0.31,-0.21,0.39,1012.68
6.822,0.52,1.37,-0.49,1.00,1.29,-0.95,-0.31,-0.21,0.39,1012.68
6.838,0.58,1.51,-0.24,1.00,1.29,-0.95,-0.31,-0.21,0.39,1012.68
6.872,0.58,1.51,-0.24,1.00,1.29,-0.95,-0.31,-0.21,0.39,1012.68
6.875,0.58,1.54,-0.10,1.00,1.29,-0.95,-0.31,-0.21,0.39,1012.68
6.877,0.58,1.54,-0.10,1.00,1.29,-0.95,-0.55,-0.05,-0.06,1012.68
6.879,0.58,1.54,-0.10,2.55,4.65,-0.97,-0.55,-0.05,-0.06,1012.68
6.881,0.39,1.38,-0.06,2.55,4.65,-0.97,-0.55,-0.05,-0.06,1012.68
6.914,0.07,1.14,-0.17,2.55,4.65,-0.97,-0.55,-0.05,-0.06,1012.68
6.917,0.07,1.14,-0.17,2.55,4.65,-0.97,-0.56,0.37,-0.61,1012.68
6.918,0.07,1.14,-0.17,0.73,4.21,1.67,-0.56,0.37,-0.61,1012.68
6.919,0.07,1.14,-0.17,0.73,4.21,1.67,-0.56,0.37,-0.61,1012.67
6.919,-0.31,0.92,-0.28,0.73,4.21,1.67,-0.56,0.37,-0.61,1012.67
6.937,-0.42,0.84,-0.29,0.73,4.21,1.67,-0.56,0.37,-0.61,1012.67
6.939,-0.42,0.84,-0.29,0.73,4.21,1.67,-0.57,0.39,-0.66,1012.67
6.94,-0.42,0.84,-0.29,0.91,4.01,1.41,-0.57,0.39,-0.66,1012.67
6.967,-0.12,1.02,-0.40,0.91,4.01,1.41,-0.57,0.39,-0.66,1012.67
6.97,-0.12,1.02,-0.40,0.91,4.01,1.41,-0.57,0.39,-0.66,1012.66
6.976,0.18,1.30,-0.31,0.91,4.01,1.41,-0.57,0.39,-0.66,1012.66
6.978,0.18,1.30,-0.31,0.91,4.01,1.41,-0.50,-0.70,0.97,1012.66
6.979,0.18,1.30,-0.31,-5.48,-0.14,-0.78,-0.50,-0.70,0.97,1012.66
7.004,0.38,1.14,-0.45,-5.48,-0.14,-0.78,-0.50,-0.70,0.97,1012.66
7.015,0.50,0.89,-0.16,-5.48,-0.14,-0.78,-0.50,-0.70,0.97,1012.66
7.016,0.50,0.89,-0.16,-5.48,-0.14,-0.78,-0.14,-1.50,2.96,1012.66
7.017,0.50,0.89,-0.16,-0.15,2.03,-0.49,-0.14,-1.50,2.96,1012.66
7.026,0.50,0.89,-0.16,-0.15,2.03,-0.49,-0.14,-1.50,2.96,1012.67
7.034,0.51,0.89,-0.23,-0.15,2.03,-0.49,-0.14,-1.50,2.96,1012.67
7.069,0.37,1.03,-0.41,-0.15,2.03,-0.49,-0.14,-1.50,2.96,1012.67
7.073,0.37,1.03,-0.41,-0.15,2.03,-0.49,0.33,-0.53,3.38,1012.67
7.075,0.37,1.03,-0.41,-1.23,2.57,-0.29,0.33,-0.53,3.38,1012.67
7.077,0.36,1.05,-0.41,-1.23,2.57,-0.29,0.33,-0.53,3.38,1012.67
7.109,0.36,1.05,-0.41,-1.23,2.57,-0.29,0.33,-0.53,3.38,1012.66
7.111,0.45,0.97,-0.35,-1.23,2.57,-0.29,0.33,-0.53,3.38,1012.66
7.112,0.45,0.97,-0.35,-1.23,2.57,-0.29,0.67,0.23,3.09,1012.66
7.113,0.45,0.97,-0.35,-1.61,2.05,-0.52,0.67,0.23,3.09,1012.66
7.113,0.44,0.88,-0.29,-1.61,2.05,-0.52,0.67,0.23,3.09,1012.66
7.135,0.42,0.82,-0.33,-1.61,2.05,-0.52,0.67,0.23,3.09,1012.66
7.136,0.42,0.82,-0.33,-1.61,2.05,-0.52,0.61,0.45,2.60,1012.66
7.137,0.42,0.82,-0.33,-2.15,1.73,-0.19,0.61,0.45,2.60,1012.66
7.163,0.42,0.82,-0.33,-2.15,1.73,-0.19,0.61,0.45,2.60,1012.65
7.165,0.38,0.73,-0.34,-2.15,1.73,-0.19,0.61,0.45,2.60,1012.65
7.172,0.30,0.61,-0.27,-2.15,1.73,-0.19,0.61,0.45,2.60,1012.65
7.173,0.30,0.61,-0.27,-2.15,1.73,-0.19,0.49,0.69,1.75,1012.65
7.173,0.30,0.61,-0.27,-2.65,2.21,-0.24,0.49,0.69,1.75,1012.65
7.192,0.25,0.47,-0.22,-2.65,2.21,-0.24,0.49,0.69,1.75,1012.65
7.207,0.25,0.47,-0.22,-2.65,2.21,-0.24,0.49,0.69,1.75,1012.64
7.217,0.24,0.41,-0.19,-2.65,2.21,-0.24,0.49,0.69,1.75,1012.64
7.221,0.24,0.41,-0.19,-2.65,2.21,-0.24,0.31,0.51,0.69,1012.64
7.223,0.24,0.41,-0.19,-4.05,-0.35,0.17,0.31,0.51,0.69,1012.64
7.234,0.25,0.40,-0.16,-4.05,-0.35,0.17,0.31,0.51,0.69,1012.64
7.265,0.25,0.40,-0.16,-4.42,-2.22,1.35,0.31,0.51,0.69,1012.64
7.267,0.27,0.45,-0.13,-4.42,-2.22,1.35,0.31,0.51,0.69,1012.64
7.267,0.27,0.45,-0.13,-4.42,-2.22,1.35,0.23,0.02,-0.42,1012.64
7.271,0.27,0.45,-0.13,-4.42,-2.22,1.35,0.23,0.02,-0.42,1012.64
7.272,0.26,0.47,-0.10,-4.42,-2.22,1.35,0.23,0.02,-0.42,1012.64
7.295,0.26,0.47,-0.10,-3.94,-2.58,1.40,0.23,0.02,-0.42,1012.64
7.297,0.28,0.45,-0.08,-3.94,-2.58,1.40,0.23,0.02,-0.42,1012.64
7.298,0.28,0.45,-0.08,-3.94,-2.58,1.40,0.12,-0.17,-1.54,1012.64
7.311,0.33,0.46,-0.05,-3.94,-2.58,1.40,0.12,-0.17,-1.54,1012.64
7.325,0.33,0.46,-0.05,-3.94,-2.58,1.40,0.12,-0.17,-1.54,1012.64
7.34,0.32,0.50,-0.09,-3.94,-2.58,1.40,0.12,-0.17,-1.54,1012.64
7.342,0.32,0.50,-0.09,-3.94,-2.58,1.40,-0.03,0.02,-2.45,1012.64
7.343,0.32,0.50,-0.09,-2.88,-2.74,2.13,-0.03,0.02,-2.45,1012.64
7.373,0.30,0.51,-0.14,-2.88,-2.74,2.13,-0.03,0.02,-2.45,1012.64
7.375,0.33,0.55,-0.15,-2.88,-2.74,2.13,-0.03,0.02,-2.45,1012.64
7.375,0.33,0.55,-0.15,-2.88,-2.74,2.13,-0.13,0.20,-3.17,1012.64
7.376,0.33,0.55,-0.15,-1.64,-2.76,1.57,-0.13,0.20,-3.17,1012.64
7.386,0.33,0.55,-0.15,-1.64,-2.76,1.57,-0.13,0.20,-3.17,1012.64
7.39,0.40,0.66,-0.16,-1.64,-2.76,1.57,-0.13,0.20,-3.17,1012.64
7.41,0.43,0.75,-0.18,-1.64,-2.76,1.57,-0.13,0.20,-3.17,1012.64
7.413,0.43,0.75,-0.18,-1.64,-2.76,1.57,-0.19,0.30,-3.69,1012.64
7.414,0.43,0.75,-0.18,-0.47,-3.34,1.44,-0.19,0.30,-3.69,1012.64
7.431,0.40,0.82,-0.23,-0.47,-3.34,1.44,-0.19,0.30,-3.69,1012.64
7.449,0.40,0.82,-0.23,-0.47,-3.34,1.44,-0.19,0.30,-3.69,1012.63
7.456,0.38,0.92,-0.29,-0.47,-3.34,1.44,-0.19,0.30,-3.69,1012.63
7.458,0.38,0.92,-0.29,-0.47,-3.34,1.44,-0.15,0.40,-3.95,1012.63
7.46,0.38,0.92,-0.29,1.72,-1.59,0.70,-0.15,0.40,-3.95,1012.63
7.484,0.46,0.98,-0.36,1.72,-1.59,0.70,-0.15,0.40,-3.95,1012.63
7.489,0.60,0.97,-0.33,1.72,-1.59,0.70,-0.15,0.40,-3.95,1012.63
7.491,0.60,0.97,-0.33,1.72,-1.59,0.70,-0.05,0.08,-3.70,1012.63
7.491,0.60,0.97,-0.33,3.68,0.26,-0.64,-0.05,0.08,-3.70,1012.63
7.52,0.60,0.97,-0.33,3.68,0.26,-0.64,-0.05,0.08,-3.70,1012.63
7.522,0.71,0.96,-0.30,3.68,0.26,-0.64,-0.05,0.08,-3.70,1012.63
7.528,0.76,0.92,-0.27,3.68,0.26,-0.64,-0.05,0.08,-3.70,1012.63
7.529,0.76,0.92,-0.27,3.68,0.26,-0.64,-0.10,0.51,-3.21,1012.63
7.53,0.76,0.92,-0.27,4.71,0.18,-0.68,-0.10,0.51,-3.21,1012.63
7.562,0.65,0.85,-0.22,4.71,0.18,-0.68,-0.10,0.51,-3.21,1012.63
7.569,0.65,0.85,-0.22,4.71,0.18,-0.68,-0.10,0.51,-3.21,1012.62
7.571,0.32,1.04,-0.10,4.71,0.18,-0.68,-0.10,0.51,-3.21,1012.62
7.573,0.32,1.04,-0.10,4.71,0.18,-0.68,-0.13,2.00,-2.85,1012.62
7.574,0.32,1.04,-0.10,7.64,-0.24,-0.06,-0.13,2.00,-2.85,1012.62
7.603,0.07,1.56,-0.00,7.64,-0.24,-0.06,-0.13,2.00,-2.85,1012.62
7.607,0.23,1.48,-0.92,7.64,-0.24,-0.06,-0.13,2.00,-2.85,1012.62
7.609,0.23,1.48,-0.92,7.64,-0.24,-0.06,-0.11,2.09,-0.67,1012.62
7.61,0.23,1.48,-0.92,2.74,4.07,-0.80,-0.11,2.09,-0.67,1012.62
7.625,0.23,1.48,-0.92,2.74,4.07,-0.80,-0.11,2.09,-0.67,1012.64
7.627,-0.36,1.36,-0.51,2.74,4.07,-0.80,-0.11,2.09,-0.67,1012.64
7.648,-0.36,1.36,-0.51,2.38,3.99,-0.77,-0.11,2.09,-0.67,1012.64
7.65,-1.03,0.58,0.08,2.38,3.99,-0.77,-0.11,2.09,-0.67,1012.64
7.651,-1.03,0.58,0.08,2.38,3.99,-0.77,0.09,-1.05,1.17,1012.64
7.685,0.28,0.61,-0.85,2.38,3.99,-0.77,0.09,-1.05,1.17,1012.64
7.689,0.28,0.61,-0.85,2.38,3.99,-0.77,0.09,-1.05,1.17,1012.66
7.693,1.26,1.35,-0.02,2.38,3.99,-0.77,0.09,-1.05,1.17,1012.66
7.695,1.26,1.35,-0.02,2.38,3.99,-0.77,0.34,-3.14,0.84,1012.66
7.698,1.26,1.35,-0.02,-3.24,-0.95,-1.52,0.34,-3.14,0.84,1012.66
7.707,1.19,1.18,-0.08,-3.24,-0.95,-1.52,0.34,-3.14,0.84,1012.66
7.727,0.28,0.77,-0.25,-3.24,-0.95,-1.52,0.34,-3.14,0.84,1012.66
7.73,0.28,0.77,-0.25,-3.24,-0.95,-1.52,0.14,-1.63,0.66,1012.66
7.732,0.28,0.77,-0.25,9.09,1.45,1.52,0.14,-1.63,0.66,1012.66
7.751,0.28,0.77,-0.25,9.09,1.45,1.52,0.14,-1.63,0.66,1012.67
7.754,-0.23,0.93,-0.29,9.09,1.45,1.52,0.14,-1.63,0.66,1012.67
7.781,-0.44,0.99,-0.49,9.09,1.45,1.52,0.14,-1.63,0.66,1012.67
7.782,-0.44,0.99,-0.49,9.09,1.45,1.52,0.39,1.46,-0.81,1012.67
7.783,-0.44,0.99,-0.49,9.07,1.48,1.65,0.39,1.46,-0.81,1012.67
7.785,-0.36,0.96,-0.46,9.07,1.48,1.65,0.39,1.46,-0.81,1012.67
7.805,-0.36,0.96,-0.46,9.07,1.48,1.65,0.39,1.46,-0.81,1012.65
7.806,-0.24,0.95,-0.31,9.07,1.48,1.65,0.39,1.46,-0.81,1012.65
7.807,-0.24,0.95,-0.31,9.07,1.48,1.65,0.30,1.06,-0.37,1012.65
7.807,-0.24,0.95,-0.31,-3.14,0.17,-1.09,0.30,1.06,-0.37,1012.65
7.825,-0.29,0.95,-0.30,-3.14,0.17,-1.09,0.30,1.06,-0.37,1012.65
7.848,-0.22,0.97,-0.37,-3.14,0.17,-1.09,0.30,1.06,-0.37,1012.65
7.851,-0.22,0.97,-0.37,-3.14,0.17,-1.09,0.16,-0.16,0.02,1012.65
7.851,-0.22,0.97,-0.37,-2.15,0.17,-0.21,0.16,-0.16,0.02,1012.65
7.878,-0.12,0.95,-0.37,-2.15,0.17,-0.21,0.16,-0.16,0.02,1012.65
7.881,-0.12,0.95,-0.37,-2.15,0.17,-0.21,0.16,-0.16,0.02,1012.64
7.884,-0.11,0.91,-0.36,-2.15,0.17,-0.21,0.16,-0.16,0.02,1012.64
7.886,-0.11,0.91,-0.36,-2.15,0.17,-0.21,0.14,-0.25,0.26,1012.64
7.886,-0.11,0.91,-0.36,-2.17,0.18,-0.16,0.14,-0.25,0.26,1012.64
7.904,-0.04,0.93,-0.35,-2.17,0.18,-0.16,0.14,-0.25,0.26,1012.64
7.923,-0.01,0.97,-0.31,-2.17,0.18,-0.16,0.14,-0.25,0.26,1012.64
7.925,-0.01,0.97,-0.31,-2.17,0.18,-0.16,0.07,0.40,0.34,1012.64
7.926,-0.01,0.97,-0.31,-0.81,-0.06,-0.40,0.07,0.40,0.34,1012.64
7.927,-0.01,0.97,-0.31,-0.81,-0.06,-0.40,0.07,0.40,0.34,1012.64
7.944,-0.09,0.96,-0.31,-0.81,-0.06,-0.40,0.07,0.40,0.34,1012.64
7.973,-0.13,0.95,-0.33,-0.81,-0.06,-0.40,0.07,0.40,0.34,1012.64
7.976,-0.13,0.95,-0.33,-0.81,-0.06,-0.40,0.05,0.77,0.35,1012.64
7.978,-0.13,0.95,-0.33,-0.85,0.19,0.01,0.05,0.77,0.35,1012.64
8.009,-0.06,0.96,-0.33,-0.85,0.19,0.01,0.05,0.77,0.35,1012.64
8.011,-0.06,0.96,-0.33,-0.85,0.19,0.01,0.05,0.77,0.35,1012.64
8.012,0.06,0.98,-0.32,-0.85,0.19,0.01,0.05,0.77,0.35,1012.64
8.014,0.06,0.98,-0.32,-0.85,0.19,0.01,0.06,0.52,0.44,1012.64
8.015,0.06,0.98,-0.32,-1.06,0.20,0.03,0.06,0.52,0.44,1012.64
8.022,0.13,0.97,-0.32,-1.06,0.20,0.03,0.06,0.52,0.44,1012.64
8.042,0.12,0.96,-0.30,-1.06,0.20,0.03,0.06,0.52,0.44,1012.64
8.045,0.12,0.96,-0.30,-1.06,0.20,0.03,0.05,0.34,0.46,1012.64
8.046,0.12,0.96,-0.30,-0.11,0.32,-0.01,0.05,0.34,0.46,1012.64
8.048,0.12,0.96,-0.30,-0.11,0.32,-0.01,0.05,0.34,0.46,1012.63
8.065,0.06,0.96,-0.31,-0.11,0.32,-0.01,0.05,0.34,0.46,1012.63
8.091,0.04,0.97,-0.35,-0.11,0.32,-0.01,0.05,0.34,0.46,1012.63
8.093,0.04,0.97,-0.35,-0.11,0.32,-0.01,0.05,0.51,0.34,1012.63
8.093,0.04,0.97,-0.35,-0.00,0.26,0.02,0.05,0.51,0.34,1012.63
8.101,0.04,0.95,-0.38,-0.00,0.26,0.02,0.05,0.51,0.34,1012.63
8.105,0.04,0.95,-0.38,-0.00,0.26,0.02,0.05,0.51,0.34,1012.63
8.121,0.05,0.94,-0.33,-0.00,0.26,0.02,0.05,0.51,0.34,1012.63
8.124,0.05,0.94,-0.33,-0.00,0.26,0.02,0.03,0.71,0.32,1012.63
8.126,0.05,0.94,-0.33,-0.20,0.27,0.00,0.03,0.71,0.32,1012.63
8.141,0.01,0.95,-0.37,-0.20,0.27,0.00,0.03,0.71,0.32,1012.63
8.161,-0.04,0.95,-0.38,-0.20,0.27,0.00,0.03,0.71,0.32,1012.63
8.163,-0.04,0.95,-0.38,-0.20,0.27,0.00,-0.02,0.84,0.36,1012.63
8.164,-0.04,0.95,-0.38,-0.79,0.15,-0.44,-0.02,0.84,0.36,1012.63
8.193,-0.04,0.95,-0.38,-0.79,0.15,-0.44,-0.02,0.84,0.36,1012.64
8.194,0.01,0.95,-0.35,-0.79,0.15,-0.44,-0.02,0.84,0.36,1012.64
8.202,0.01,0.95,-0.35,-1.20,0.19,-0.54,-0.02,0.84,0.36,1012.64
8.204,0.09,0.96,-0.36,-1.20,0.19,-0.54,-0.02,0.84,0.36,1012.64
8.205,0.09,0.96,-0.36,-1.20,0.19,-0.54,-0.07,0.83,0.47,1012.64
8.22,0.16,0.97,-0.38,-1.20,0.19,-0.54,-0.07,0.83,0.47,1012.64
8.225,0.16,0.97,-0.38,-1.20,0.19,-0.54,-0.07,0.83,0.47,1012.65
8.239,0.23,0.98,-0.37,-1.20,0.19,-0.54,-0.07,0.83,0.47,1012.65
8.241,0.23,0.98,-0.37,-1.20,0.19,-0.54,-0.11,0.72,0.55,1012.65
8.242,0.23,0.98,-0.37,-1.46,0.21,-0.61,-0.11,0.72,0.55,1012.65
8.263,0.27,0.99,-0.38,-1.46,0.21,-0.61,-0.11,0.72,0.55,1012.65
8.308,0.26,0.99,-0.37,-1.46,0.21,-0.61,-0.11,0.72,0.55,1012.65
8.311,0.26,0.99,-0.37,-1.46,0.21,-0.61,-0.20,0.75,0.45,1012.65
8.313,0.26,0.99,-0.37,0.25,0.50,-0.85,-0.20,0.75,0.45,1012.65
8.314,0.26,0.99,-0.37,0.25,0.50,-0.85,-0.20,0.75,0.45,1012.64
8.316,0.27,1.01,-0.34,0.25,0.50,-0.85,-0.20,0.75,0.45,1012.64
8.319,0.29,0.98,-0.30,0.25,0.50,-0.85,-0.20,0.75,0.45,1012.64
8.321,0.29,0.98,-0.30,0.25,0.50,-0.85,-0.30,0.93,0.25,1012.64
8.322,0.29,0.98,-0.30,0.58,0.60,-0.60,-0.30,0.93,0.25,1012.64
8.338,0.24,0.92,-0.30,0.58,0.60,-0.60,-0.30,0.93,0.25,1012.64
8.345,0.24,0.92,-0.30,0.58,0.60,-0.60,-0.30,0.93,0.25,1012.63
8.37,0.15,0.88,-0.36,0.58,0.60,-0.60,-0.30,0.93,0.25,1012.63
8.374,0.15,0.88,-0.36,0.58,0.60,-0.60,-0.28,1.13,0.07,1012.63
8.376,0.15,0.88,-0.36,0.44,0.57,-0.79,-0.28,1.13,0.07,1012.63
8.378,0.10,0.90,-0.40,0.44,0.57,-0.79,-0.28,1.13,0.07,1012.63
8.402,0.14,0.95,-0.37,0.44,0.57,-0.79,-0.28,1.13,0.07,1012.63
8.405,0.14,0.95,-0.37,0.44,0.57,-0.79,-0.13,1.54,-0.09,1012.63
8.407,0.14,0.95,-0.37,-0.73,-0.36,-1.15,-0.13,1.54,-0.09,1012.63
8.408,0.14,0.95,-0.37,-0.73,-0.36,-1.15,-0.13,1.54,-0.09,1012.62
8.418,0.15,0.96,-0.25,-0.73,-0.36,-1.15,-0.13,1.54,-0.09,1012.62
8.437,0.10,0.88,-0.20,-0.73,-0.36,-1.15,-0.13,1.54,-0.09,1012.62
8.439,0.10,0.88,-0.20,-0.73,-0.36,-1.15,0.03,2.13,-0.15,1012.62
8.441,0.10,0.88,-0.20,-1.20,-0.09,-0.54,0.03,2.13,-0.15,1012.62
8.465,0.17,0.91,-0.14,-1.20,-0.09,-0.54,0.03,2.13,-0.15,1012.62
8.471,0.17,0.91,-0.14,-1.20,-0.09,-0.54,0.03,2.13,-0.15,1012.62
8.477,0.26,0.98,-0.13,-1.20,-0.09,-0.54,0.03,2.13,-0.15,1012.62
8.479,0.26,0.98,-0.13,-1.20,-0.09,-0.54,0.13,2.68,-0.13,1012.62
8.481,0.26,0.98,-0.13,-1.35,-0.09,-0.75,0.13,2.68,-0.13,1012.62
8.508,0.26,0.97,-0.15,-1.35,-0.09,-0.75,0.13,2.68,-0.13,1012.62
8.517,0.26,0.97,-0.15,-0.49,0.16,0.33,0.13,2.68,-0.13,1012.62
8.518,0.24,0.94,-0.11,-0.49,0.16,0.33,0.13,2.68,-0.13,1012.62
8.519,0.24,0.94,-0.11,-0.49,0.16,0.33,0.20,2.95,-0.16,1012.62
8.524,0.24,0.94,-0.11,-0.49,0.16,0.33,0.20,2.95,-0.16,1012.63
8.535,0.27,0.96,-0.06,-0.49,0.16,0.33,0.20,2.95,-0.16,1012.63
8.555,0.29,0.95,-0.01,-0.49,0.16,0.33,0.20,2.95,-0.16,1012.63
8.556,0.29,0.95,-0.01,-0.49,0.16,0.33,0.13,2.74,-0.37,1012.63
8.56,0.29,0.95,-0.01,-0.16,0.08,0.82,0.13,2.74,-0.37,1012.63
8.575,0.26,0.94,0.02,-0.16,0.08,0.82,0.13,2.74,-0.37,1012.63
8.584,0.26,0.94,0.02,-0.16,0.08,0.82,0.13,2.74,-0.37,1012.64
8.595,0.27,0.96,-0.01,-0.16,0.08,0.82,0.13,2.74,-0.37,1012.64
8.595,0.27,0.96,-0.01,-0.16,0.08,0.82,0.01,2.04,-0.46,1012.64
8.596,0.27,0.96,-0.01,-0.10,0.03,0.59,0.01,2.04,-0.46,1012.64
8.615,0.28,0.97,-0.01,-0.10,0.03,0.59,0.01,2.04,-0.46,1012.64
8.637,0.26,0.96,0.04,-0.10,0.03,0.59,0.01,2.04,-0.46,1012.64
8.64,0.26,0.96,0.04,-0.10,0.03,0.59,-0.10,1.36,-0.42,1012.64
8.642,0.26,0.96,0.04,0.04,0.06,0.99,-0.10,1.36,-0.42,1012.64
8.645,0.26,0.96,0.04,0.04,0.06,0.99,-0.10,1.36,-0.42,1012.63
8.667,0.23,0.95,0.01,0.04,0.06,0.99,-0.10,1.36,-0.42,1012.63
8.675,0.19,0.95,-0.03,0.04,0.06,0.99,-0.10,1.36,-0.42,1012.63
8.676,0.19,0.95,-0.03,0.04,0.06,0.99,-0.22,0.89,-0.35,1012.63
8.676,0.19,0.95,-0.03,-0.29,-0.02,0.89,-0.22,0.89,-0.35,1012.63
8.71,0.17,0.95,-0.05,-0.29,-0.02,0.89,-0.22,0.89,-0.35,1012.63
8.713,0.17,0.95,-0.05,-0.29,-0.02,0.89,-0.22,0.89,-0.35,1012.63
8.714,0.16,0.95,-0.09,-0.29,-0.02,0.89,-0.22,0.89,-0.35,1012.63
8.718,0.16,0.95,-0.09,-0.21,-0.05,0.76,-0.22,0.89,-0.35,1012.63
8.721,0.16,0.95,-0.09,-0.21,-0.05,0.76,-0.19,0.48,-0.24,1012.63
8.733,0.16,0.96,-0.08,-0.21,-0.05,0.76,-0.19,0.48,-0.24,1012.63
8.763,0.18,0.95,-0.06,-0.21,-0.05,0.76,-0.19,0.48,-0.24,1012.63
8.766,0.18,0.95,-0.06,-0.21,-0.05,0.76,-0.16,0.44,-0.28,1012.63
8.767,0.18,0.95,-0.06,-0.75,-0.10,-0.16,-0.16,0.44,-0.28,1012.63
8.771,0.18,0.95,-0.06,-0.75,-0.10,-0.16,-0.16,0.44,-0.28,1012.62
8.774,0.18,0.96,-0.05,-0.75,-0.10,-0.16,-0.16,0.44,-0.28,1012.62
8.796,0.17,0.96,-0.01,-0.75,-0.10,-0.16,-0.16,0.44,-0.28,1012.62
8.799,0.17,0.96,-0.01,-0.75,-0.10,-0.16,-0.18,0.48,-0.23,1012.62
8.8,0.17,0.96,-0.01,-0.55,-0.10,0.06,-0.18,0.48,-0.23,1012.62
8.812,0.17,0.96,0.02,-0.55,-0.10,0.06,-0.18,0.48,-0.23,1012.62
8.825,0.17,0.96,0.02,-0.55,-0.10,0.06,-0.18,0.48,-0.23,1012.62
8.833,0.17,0.97,0.02,-0.55,-0.10,0.06,-0.18,0.48,-0.23,1012.62
8.834,0.17,0.97,0.02,-0.55,-0.10,0.06,-0.14,0.25,-0.18,1012.62
8.835,0.17,0.97,0.02,-0.48,-0.11,-0.01,-0.14,0.25,-0.18,1012.62
8.859,0.16,0.98,-0.00,-0.48,-0.11,-0.01,-0.14,0.25,-0.18,1012.62
8.938,0.15,0.98,-0.03,-0.48,-0.11,-0.01,-0.14,0.25,-0.18,1012.62
8.94,0.15,0.98,-0.03,-0.48,-0.11,-0.01,-0.08,0.09,-0.15,1012.62
8.941,0.15,0.98,-0.03,-0.47,0.04,0.47,-0.08,0.09,-0.15,1012.62
8.941,0.15,0.98,-0.03,-0.47,0.04,0.47,-0.08,0.09,-0.15,1012.62
8.942,0.14,1.00,-0.05,-0.47,0.04,0.47,-0.08,0.09,-0.15,1012.62
8.943,0.15,1.00,-0.05,-0.47,0.04,0.47,-0.08,0.09,-0.15,1012.62
8.944,0.15,1.00,-0.05,-0.62,0.23,-0.09,-0.08,0.09,-0.15,1012.62
8.944,0.15,1.00,-0.05,-0.62,0.23,-0.09,-0.05,0.07,-0.13,1012.62
8.945,0.13,1.00,-0.03,-0.62,0.23,-0.09,-0.05,0.07,-0.13,1012.62
8.945,0.13,1.00,-0.03,-0.62,0.23,-0.09,-0.05,0.07,-0.13,1012.63
8.952,0.13,1.00,-0.03,-0.57,0.22,-0.11,-0.05,0.07,-0.13,1012.63
8.955,0.11,0.98,-0.02,-0.57,0.22,-0.11,-0.05,0.07,-0.13,1012.63
8.956,0.11,0.98,-0.02,-0.57,0.22,-0.11,-0.05,0.09,-0.10,1012.63
8.972,0.09,0.98,-0.01,-0.57,0.22,-0.11,-0.05,0.09,-0.10,1012.63
9.006,0.10,0.98,-0.01,-0.57,0.22,-0.11,-0.05,0.09,-0.10,1012.63
9.008,0.10,0.98,-0.01,-0.57,0.22,-0.11,-0.04,0.06,-0.03,1012.63
9.009,0.10,0.98,-0.01,-0.93,0.14,0.09,-0.04,0.06,-0.03,1012.63
9.01,0.10,0.98,-0.01,-0.93,0.14,0.09,-0.04,0.06,-0.03,1012.61
9.012,0.11,0.98,-0.02,-0.93,0.14,0.09,-0.04,0.06,-0.03,1012.61
9.03,0.12,0.98,-0.01,-0.93,0.14,0.09,-0.04,0.06,-0.03,1012.61
9.031,0.12,0.98,-0.01,-0.93,0.14,0.09,-0.01,-0.04,0.06,1012.61
9.031,0.12,0.98,-0.01,-0.91,0.11,0.16,-0.01,-0.04,0.06,1012.61
9.05,0.14,0.98,-0.02,-0.91,0.11,0.16,-0.01,-0.04,0.06,1012.61
9.068,0.14,0.98,-0.02,-0.91,0.11,0.16,-0.01,-0.04,0.06,1012.61
9.07,0.16,0.99,-0.04,-0.91,0.11,0.16,-0.01,-0.04,0.06,1012.61
9.07,0.16,0.99,-0.04,-0.91,0.11,0.16,0.02,-0.12,0.13,1012.61
9.071,0.16,0.99,-0.04,-0.94,0.12,0.17,0.02,-0.12,0.13,1012.61
9.088,0.18,0.99,-0.04,-0.94,0.12,0.17,0.02,-0.12,0.13,1012.61
9.109,0.21,0.98,-0.02,-0.94,0.12,0.17,0.02,-0.12,0.13,1012.61
9.11,0.21,0.98,-0.02,-0.94,0.12,0.17,0.04,-0.17,0.14,1012.61
9.111,0.21,0.98,-0.02,-0.50,0.16,0.00,0.04,-0.17,0.14,1012.61
9.125,0.21,0.98,-0.02,-0.50,0.16,0.00,0.04,-0.17,0.14,1012.62
9.129,0.22,0.98,-0.02,-0.50,0.16,0.00,0.04,-0.17,0.14,1012.62
9.18,0.21,0.97,-0.01,-0.50,0.16,0.00,0.04,-0.17,0.14,1012.62
9.183,0.21,0.97,-0.01,-0.50,0.16,0.00,0.04,-0.11,0.10,1012.62
9.184,0.21,0.97,-0.01,-0.03,0.10,0.20,0.04,-0.11,0.10,1012.62
9.184,0.19,0.98,-0.01,-0.03,0.10,0.20,0.04,-0.11,0.10,1012.62
9.187,0.19,0.98,-0.01,-0.03,0.10,0.20,0.04,-0.11,0.10,1012.64
9.188,0.18,0.98,-0.05,-0.03,0.10,0.20,0.04,-0.11,0.10,1012.64
9.189,0.18,0.98,-0.05,-0.03,0.10,0.20,0.06,-0.05,0.06,1012.64
9.189,0.18,0.98,-0.05,-0.05,0.11,0.22,0.06,-0.05,0.06,1012.64
9.213,0.20,0.99,-0.05,-0.05,0.11,0.22,0.06,-0.05,0.06,1012.64
9.228,0.21,0.97,-0.04,-0.05,0.11,0.22,0.06,-0.05,0.06,1012.64
9.229,0.21,0.97,-0.04,-0.05,0.11,0.22,0.07,-0.12,0.05,1012.64
9.229,0.21,0.97,-0.04,-0.31,0.15,0.03,0.07,-0.12,0.05,1012.64
9.245,0.21,0.97,-0.04,-0.31,0.15,0.03,0.07,-0.12,0.05,1012.64
9.258,0.23,0.97,-0.04,-0.31,0.15,0.03,0.07,-0.12,0.05,1012.64
9.295,0.21,0.98,-0.04,-0.31,0.15,0.03,0.07,-0.12,0.05,1012.64
9.298,0.21,0.98,-0.04,-0.31,0.15,0.03,0.07,-0.03,0.03,1012.64
9.299,0.21,0.98,-0.04,-0.02,0.08,0.01,0.07,-0.03,0.03,1012.64
9.301,0.19,0.98,-0.05,-0.02,0.08,0.01,0.07,-0.03,0.03,1012.64
9.304,0.19,0.98,-0.05,-0.02,0.08,0.01,0.07,-0.03,0.03,1012.63
9.306,0.15,0.99,-0.05,-0.02,0.08,0.01,0.07,-0.03,0.03,1012.63
9.308,0.15,0.99,-0.05,-0.02,0.08,0.01,0.08,0.14,-0.02,1012.63
9.31,0.15,0.99,-0.05,-0.01,0.08,0.03,0.08,0.14,-0.02,1012.63
9.327,0.13,0.98,-0.06,-0.01,0.08,0.03,0.08,0.14,-0.02,1012.63
9.346,0.18,0.97,-0.04,-0.01,0.08,0.03,0.08,0.14,-0.02,1012.63
9.349,0.18,0.97,-0.04,-0.01,0.08,0.03,0.08,0.07,-0.00,1012.63
9.351,0.18,0.97,-0.04,-0.61,0.18,-0.06,0.08,0.07,-0.00,1012.63
9.373,0.18,0.97,-0.04,-0.61,0.18,-0.06,0.08,0.07,-0.00,1012.63
9.377,0.20,0.97,-0.03,-0.61,0.18,-0.06,0.08,0.07,-0.00,1012.63
9.419,0.18,0.98,-0.07,-0.61,0.18,-0.06,0.08,0.07,-0.00,1012.63
9.421,0.18,0.98,-0.07,-0.61,0.18,-0.06,0.07,-0.04,0.03,1012.63
9.422,0.18,0.98,-0.07,-0.29,0.05,0.03,0.07,-0.04,0.03,1012.63
9.424,0.17,0.98,-0.07,-0.29,0.05,0.03,0.07,-0.04,0.03,1012.63
9.426,0.17,0.98,-0.07,-0.29,0.05,0.03,0.07,-0.04,0.03,1012.63
9.428,0.19,0.98,-0.06,-0.29,0.05,0.03,0.07,-0.04,0.03,1012.63
9.43,0.19,0.98,-0.06,-0.29,0.05,0.03,0.08,-0.04,0.02,1012.63
9.432,0.19,0.98,-0.06,-0.29,0.06,0.06,0.08,-0.04,0.02,1012.63
9.444,0.21,0.98,-0.06,-0.29,0.06,0.06,0.08,-0.04,0.02,1012.63
9.467,0.20,0.97,-0.05,-0.29,0.06,0.06,0.08,-0.04,0.02,1012.63
9.469,0.20,0.97,-0.05,-0.29,0.06,0.06,0.07,0.00,0.01,1012.63
9.47,0.20,0.97,-0.05,-0.28,0.13,-0.06,0.07,0.00,0.01,1012.63
9.487,0.20,0.97,-0.05,-0.28,0.13,-0.06,0.07,0.00,0.01,1012.63
9.489,0.19,0.97,-0.07,-0.28,0.13,-0.06,0.07,0.00,0.01,1012.63
9.505,0.19,0.99,-0.07,-0.28,0.13,-0.06,0.07,0.00,0.01,1012.63
9.507,0.19,0.99,-0.07,-0.28,0.13,-0.06,0.08,0.08,-0.01,1012.63
9.508,0.19,0.99,-0.07,-0.25,0.07,-0.07,0.08,0.08,-0.01,1012.63
9.523,0.18,0.98,-0.07,-0.25,0.07,-0.07,0.08,0.08,-0.01,1012.63
9.545,0.18,0.98,-0.07,-0.25,0.07,-0.07,0.08,0.08,-0.01,1012.63
9.548,0.18,0.98,-0.07,-0.25,0.07,-0.07,0.08,0.08,-0.01,1012.63
9.55,0.18,0.98,-0.07,-0.25,0.07,-0.07,0.06,0.06,-0.01,1012.63
9.552,0.18,0.98,-0.07,-0.25,0.07,-0.05,0.06,0.06,-0.01,1012.63
9.569,0.20,0.98,-0.06,-0.25,0.07,-0.05,0.06,0.06,-0.01,1012.63
9.599,0.19,0.97,-0.06,-0.25,0.07,-0.05,0.06,0.06,-0.01,1012.63
9.601,0.19,0.97,-0.06,-0.25,0.07,-0.05,0.04,0.01,-0.01,1012.63
9.602,0.19,0.97,-0.06,-0.29,0.13,-0.07,0.04,0.01,-0.01,1012.63
9.603,0.17,0.98,-0.08,-0.29,0.13,-0.07,0.04,0.01,-0.01,1012.63
9.604,0.17,0.98,-0.08,-0.29,0.13,-0.07,0.04,0.01,-0.01,1012.63
9.623,0.20,0.98,-0.07,-0.29,0.13,-0.07,0.04,0.01,-0.01,1012.63
9.626,0.20,0.98,-0.07,-0.29,0.13,-0.07,0.04,0.02,-0.02,1012.63
9.628,0.20,0.98,-0.07,-0.26,0.06,-0.06,0.04,0.02,-0.02,1012.63
9.642,0.18,0.98,-0.08,-0.26,0.06,-0.06,0.04,0.02,-0.02,1012.63
9.662,0.13,0.98,-0.08,-0.26,0.06,-0.06,0.04,0.02,-0.02,1012.63
9.663,0.13,0.98,-0.08,-0.26,0.06,-0.06,0.03,0.05,-0.02,1012.63
9.663,0.13,0.98,-0.08,-0.23,0.06,-0.05,0.03,0.05,-0.02,1012.63
9.664,0.13,0.98,-0.08,-0.23,0.06,-0.05,0.03,0.05,-0.02,1012.62
9.682,0.14,0.98,-0.07,-0.23,0.06,-0.05,0.03,0.05,-0.02,1012.62
9.701,0.18,0.97,-0.06,-0.23,0.06,-0.05,0.03,0.05,-0.02,1012.62
9.702,0.18,0.97,-0.06,-0.23,0.06,-0.05,-0.00,0.02,0.03,1012.62
9.703,0.18,0.97,-0.06,-0.59,0.07,-0.14,-0.00,0.02,0.03,1012.62
9.721,0.23,0.98,-0.06,-0.59,0.07,-0.14,-0.00,0.02,0.03,1012.62
9.723,0.23,0.98,-0.06,-0.59,0.07,-0.14,-0.00,0.02,0.03,1012.62
9.74,0.25,0.98,-0.05,-0.59,0.07,-0.14,-0.00,0.02,0.03,1012.62
9.741,0.25,0.98,-0.05,-0.59,0.07,-0.14,0.01,-0.03,0.06,1012.62
9.742,0.25,0.98,-0.05,0.12,0.08,0.11,0.01,-0.03,0.06,1012.62
9.762,0.22,0.97,-0.05,0.12,0.08,0.11,0.01,-0.03,0.06,1012.62
9.78,0.15,0.99,-0.07,0.12,0.08,0.11,0.01,-0.03,0.06,1012.62
9.782,0.15,0.99,-0.07,0.12,0.08,0.11,0.05,0.05,-0.04,1012.62
9.782,0.15,0.99,-0.07,0.13,0.08,0.13,0.05,0.05,-0.04,1012.62
9.785,0.15,0.99,-0.07,0.13,0.08,0.13,0.05,0.05,-0.04,1012.62
9.8,0.11,0.99,-0.10,0.13,0.08,0.13,0.05,0.05,-0.04,1012.62
