time,gFx,gFy,gFz,ax,ay,az,wx,wy,wz,P
0.002,-0.07,0.97,0.19,-0.06,-0.05,-0.20,-0.01,0.04,0.02,976.26
0.006,-0.07,0.97,0.19,-0.06,-0.05,-0.20,-0.01,0.04,0.02,976.25
0.013,-0.12,0.97,0.20,-0.06,-0.05,-0.20,-0.01,0.04,0.02,976.25
0.014,-0.12,0.97,0.20,-0.06,-0.05,-0.20,-0.00,0.00,0.01,976.25
0.014,-0.12,0.97,0.20,0.13,0.01,-0.09,-0.00,0.00,0.01,976.25
0.032,-0.11,0.98,0.20,0.13,0.01,-0.09,-0.00,0.00,0.01,976.25
0.054,-0.14,0.98,0.21,0.13,0.01,-0.09,-0.00,0.00,0.01,976.25
0.054,-0.14,0.98,0.21,0.13,0.01,-0.09,-0.02,0.11,-0.00,976.25
0.055,-0.14,0.98,0.21,-0.17,-0.03,0.00,-0.02,0.11,-0.00,976.25
0.066,-0.14,0.98,0.21,-0.17,-0.03,0.00,-0.02,0.11,-0.00,976.24
0.072,-0.09,0.96,0.19,-0.17,-0.03,0.00,-0.02,0.11,-0.00,976.24
0.093,-0.07,0.99,0.19,-0.17,-0.03,0.00,-0.02,0.11,-0.00,976.24
0.094,-0.07,0.99,0.19,-0.17,-0.03,0.00,-0.00,0.03,0.02,976.24
0.094,-0.07,0.99,0.19,-0.17,-0.03,0.00,-0.00,0.03,0.02,976.24
0.113,-0.10,0.98,0.19,-0.17,-0.03,0.00,-0.00,0.03,0.02,976.24
0.127,-0.10,0.98,0.19,-0.17,-0.03,0.00,-0.00,0.03,0.02,976.23
0.131,-0.11,0.98,0.19,-0.17,-0.03,0.00,-0.00,0.03,0.02,976.23
0.132,-0.11,0.98,0.19,-0.17,-0.03,0.00,0.01,0.01,0.00,976.23
0.133,-0.11,0.98,0.19,0.14,-0.04,-0.10,0.01,0.01,0.00,976.23
0.152,-0.10,0.97,0.20,0.14,-0.04,-0.10,0.01,0.01,0.00,976.23
0.177,-0.12,0.97,0.20,0.14,-0.04,-0.10,0.01,0.01,0.00,976.23
0.179,-0.12,0.97,0.20,0.14,-0.04,-0.10,0.01,0.03,0.00,976.23
0.18,-0.12,0.97,0.20,-0.09,-0.07,-0.04,0.01,0.03,0.00,976.23
0.188,-0.12,0.97,0.20,-0.09,-0.07,-0.04,0.01,0.03,0.00,976.24
0.192,-0.11,0.98,0.19,-0.09,-0.07,-0.04,0.01,0.03,0.00,976.24
0.219,-0.10,0.97,0.18,-0.09,-0.07,-0.04,0.01,0.03,0.00,976.24
0.22,-0.10,0.97,0.18,-0.09,-0.07,-0.04,0.02,0.01,0.03,976.24
0.221,-0.10,0.97,0.18,-0.10,-0.07,-0.03,0.02,0.01,0.03,976.24
0.231,-0.08,0.98,0.17,-0.10,-0.07,-0.03,0.02,0.01,0.03,976.24
0.256,-0.08,0.98,0.17,-0.10,-0.07,-0.03,0.02,0.01,0.03,976.24
0.257,-0.06,0.99,0.16,-0.10,-0.07,-0.03,0.02,0.01,0.03,976.24
0.258,-0.06,0.99,0.16,-0.10,-0.07,-0.03,0.01,0.02,0.04,976.24
0.259,-0.06,0.99,0.16,0.07,-0.03,-0.19,0.01,0.02,0.04,976.24
0.27,-0.05,0.97,0.17,0.07,-0.03,-0.19,0.01,0.02,0.04,976.24
0.29,-0.10,0.98,0.24,0.07,-0.03,-0.19,0.01,0.02,0.04,976.24
0.291,-0.10,0.98,0.24,0.07,-0.03,-0.19,-0.00,0.07,0.01,976.24
0.292,-0.10,0.98,0.24,0.30,-0.03,-0.08,-0.00,0.07,0.01,976.24
0.306,-0.10,0.98,0.24,0.30,-0.03,-0.08,-0.00,0.07,0.01,976.24
0.309,-0.18,0.97,0.27,0.30,-0.03,-0.08,-0.00,0.07,0.01,976.24
0.338,-0.16,0.95,0.25,0.30,-0.03,-0.08,-0.00,0.07,0.01,976.24
0.339,-0.16,0.95,0.25,0.30,-0.03,-0.08,0.03,0.08,-0.01,976.24
0.34,-0.16,0.95,0.25,0.30,-0.03,-0.06,0.03,0.08,-0.01,976.24
0.35,-0.12,0.97,0.21,0.30,-0.03,-0.06,0.03,0.08,-0.01,976.24
0.366,-0.12,0.97,0.21,0.30,-0.03,-0.06,0.03,0.08,-0.01,976.24
0.369,-0.13,0.97,0.22,0.30,-0.03,-0.06,0.03,0.08,-0.01,976.24
0.37,-0.13,0.97,0.22,0.30,-0.03,-0.06,0.12,-0.07,0.06,976.24
0.371,-0.13,0.97,0.22,-0.53,-0.16,0.52,0.12,-0.07,0.06,976.24
0.389,-0.12,0.97,0.20,-0.53,-0.16,0.52,0.12,-0.07,0.06,976.24
0.409,-0.09,0.98,0.17,-0.53,-0.16,0.52,0.12,-0.07,0.06,976.24
0.411,-0.09,0.98,0.17,-0.53,-0.16,0.52,0.18,-0.10,0.11,976.24
0.412,-0.09,0.98,0.17,-0.17,-0.12,0.08,0.18,-0.10,0.11,976.24
0.427,-0.09,0.98,0.17,-0.17,-0.12,0.08,0.18,-0.10,0.11,976.24
0.43,-0.07,0.98,0.17,-0.17,-0.12,0.08,0.18,-0.10,0.11,976.24
0.463,-0.07,0.98,0.17,-0.22,-0.13,0.15,0.18,-0.10,0.11,976.24
0.465,-0.04,0.99,0.15,-0.22,-0.13,0.15,0.18,-0.10,0.11,976.24
0.467,-0.04,0.99,0.15,-0.22,-0.13,0.15,0.20,-0.12,0.11,976.24
0.468,0.02,0.99,0.14,-0.22,-0.13,0.15,0.20,-0.12,0.11,976.24
0.495,0.02,0.99,0.14,-0.22,-0.13,0.15,0.20,-0.12,0.11,976.25
0.497,0.01,1.00,0.14,-0.22,-0.13,0.15,0.20,-0.12,0.11,976.25
0.498,0.01,1.00,0.14,-0.22,-0.13,0.15,0.19,-0.05,0.04,976.25
0.499,0.01,1.00,0.14,0.58,0.02,-0.19,0.19,-0.05,0.04,976.25
0.507,-0.03,1.02,0.14,0.58,0.02,-0.19,0.19,-0.05,0.04,976.25
0.528,-0.04,0.99,0.12,0.58,0.02,-0.19,0.19,-0.05,0.04,976.25
0.53,-0.04,0.99,0.12,0.58,0.02,-0.19,0.17,0.11,-0.09,976.25
0.53,-0.04,0.99,0.12,0.67,0.14,-0.32,0.17,0.11,-0.09,976.25
0.548,-0.04,0.99,0.12,0.67,0.14,-0.32,0.17,0.11,-0.09,976.25
0.551,-0.09,0.98,0.13,0.67,0.14,-0.32,0.17,0.11,-0.09,976.25
0.567,-0.19,1.02,0.12,0.67,0.14,-0.32,0.17,0.11,-0.09,976.25
0.569,-0.19,1.02,0.12,0.67,0.14,-0.32,0.17,0.19,-0.14,976.25
0.57,-0.19,1.02,0.12,0.73,0.14,-0.25,0.17,0.19,-0.14,976.25
0.587,-0.13,1.06,0.06,0.73,0.14,-0.25,0.17,0.19,-0.14,976.25
0.606,-0.13,1.06,0.06,0.73,0.14,-0.25,0.17,0.19,-0.14,976.24
0.609,-0.10,1.08,0.01,0.73,0.14,-0.25,0.17,0.19,-0.14,976.24
0.61,-0.10,1.08,0.01,0.73,0.14,-0.25,0.16,0.05,-0.04,976.24
0.611,-0.10,1.08,0.01,-0.38,0.29,-0.45,0.16,0.05,-0.04,976.24
0.626,-0.24,1.04,0.01,-0.38,0.29,-0.45,0.16,0.05,-0.04,976.24
0.646,-0.39,0.90,0.14,-0.38,0.29,-0.45,0.16,0.05,-0.04,976.24
0.649,-0.39,0.90,0.14,-0.38,0.29,-0.45,0.18,-0.16,0.11,976.24
0.65,-0.39,0.90,0.14,-1.47,0.16,-0.87,0.18,-0.16,0.11,976.24
0.681,-0.39,0.90,0.14,-1.47,0.16,-0.87,0.18,-0.16,0.11,976.23
0.682,-0.33,0.89,0.27,-1.47,0.16,-0.87,0.18,-0.16,0.11,976.23
0.685,-0.25,0.92,0.10,-1.47,0.16,-0.87,0.18,-0.16,0.11,976.23
0.686,-0.25,0.92,0.10,-1.47,0.16,-0.87,0.35,-0.73,0.45,976.23
0.687,-0.25,0.92,0.10,-1.65,0.13,-0.75,0.35,-0.73,0.45,976.23
0.71,-0.30,0.93,0.17,-1.65,0.13,-0.75,0.35,-0.73,0.45,976.23
0.74,-0.32,0.89,0.02,-1.65,0.13,-0.75,0.35,-0.73,0.45,976.23
0.742,-0.32,0.89,0.02,-1.65,0.13,-0.75,0.64,-1.23,0.86,976.23
0.743,-0.32,0.89,0.02,-2.47,-0.82,0.72,0.64,-1.23,0.86,976.23
0.744,-0.32,0.89,0.02,-2.47,-0.82,0.72,0.64,-1.23,0.86,976.24
0.745,-0.26,0.94,0.08,-2.47,-0.82,0.72,0.64,-1.23,0.86,976.24
0.773,-0.25,1.03,0.30,-2.47,-0.82,0.72,0.64,-1.23,0.86,976.24
0.774,-0.25,1.03,0.30,-2.47,-0.82,0.72,0.95,-2.00,1.28,976.24
0.775,-0.25,1.03,0.30,-2.82,-0.49,0.59,0.95,-2.00,1.28,976.24
0.786,0.03,0.94,0.19,-2.82,-0.49,0.59,0.95,-2.00,1.28,976.24
0.788,0.03,0.94,0.19,-2.82,-0.49,0.59,0.95,-2.00,1.28,976.23
0.803,0.25,1.00,0.11,-2.82,-0.49,0.59,0.95,-2.00,1.28,976.23
0.805,0.25,1.00,0.11,-2.82,-0.49,0.59,0.89,-2.81,1.32,976.23
0.807,0.25,1.00,0.11,-3.34,-0.48,0.96,0.89,-2.81,1.32,976.23
0.823,0.24,1.26,0.22,-3.34,-0.48,0.96,0.89,-2.81,1.32,976.23
0.842,0.19,1.31,0.32,-3.34,-0.48,0.96,0.89,-2.81,1.32,976.23
0.843,0.19,1.31,0.32,-3.34,-0.48,0.96,0.41,-2.31,0.51,976.23
0.843,0.19,1.31,0.32,0.84,0.61,1.55,0.41,-2.31,0.51,976.23
0.845,0.19,1.31,0.32,0.84,0.61,1.55,0.41,-2.31,0.51,976.22
0.863,0.03,1.18,0.24,0.84,0.61,1.55,0.41,-2.31,0.51,976.22
0.883,-0.14,1.19,0.35,0.84,0.61,1.55,0.41,-2.31,0.51,976.22
0.884,-0.14,1.19,0.35,0.84,0.61,1.55,-0.00,-1.59,-0.33,976.22
0.884,-0.14,1.19,0.35,-0.46,2.16,2.83,-0.00,-1.59,-0.33,976.22
0.902,-0.01,1.18,0.33,-0.46,2.16,2.83,-0.00,-1.59,-0.33,976.22
0.905,-0.01,1.18,0.33,-0.46,2.16,2.83,-0.00,-1.59,-0.33,976.21
0.922,0.05,1.10,0.21,-0.46,2.16,2.83,-0.00,-1.59,-0.33,976.21
0.923,0.05,1.10,0.21,-0.46,2.16,2.83,-0.18,-1.61,-0.64,976.21
0.924,0.05,1.10,0.21,-0.22,2.11,2.76,-0.18,-1.61,-0.64,976.21
0.942,0.02,1.09,0.07,-0.22,2.11,2.76,-0.18,-1.61,-0.64,976.21
0.963,-0.02,1.06,0.05,-0.22,2.11,2.76,-0.18,-1.61,-0.64,976.21
0.966,-0.02,1.06,0.05,-0.22,2.11,2.76,-0.18,-1.83,-0.62,976.21
0.967,-0.02,1.06,0.05,-0.06,1.10,1.72,-0.18,-1.83,-0.62,976.21
0.968,-0.02,1.06,0.05,-0.06,1.10,1.72,-0.18,-1.83,-0.62,976.21
0.984,0.05,1.02,0.09,-0.06,1.10,1.72,-0.18,-1.83,-0.62,976.21
1.002,0.12,0.99,0.07,-0.06,1.10,1.72,-0.18,-1.83,-0.62,976.21
1.005,0.12,0.99,0.07,-0.06,1.10,1.72,-0.22,-2.03,-0.54,976.21
1.006,0.12,0.99,0.07,0.43,0.08,0.32,-0.22,-2.03,-0.54,976.21
1.022,0.05,0.94,0.08,0.43,0.08,0.32,-0.22,-2.03,-0.54,976.21
1.025,0.05,0.94,0.08,0.43,0.08,0.32,-0.22,-2.03,-0.54,976.22
1.041,-0.02,0.91,0.07,0.43,0.08,0.32,-0.22,-2.03,-0.54,976.22
1.043,-0.02,0.91,0.07,0.43,0.08,0.32,-0.32,-1.99,-0.55,976.22
1.043,-0.02,0.91,0.07,0.60,0.09,0.19,-0.32,-1.99,-0.55,976.22
1.06,-0.02,0.89,0.04,0.60,0.09,0.19,-0.32,-1.99,-0.55,976.22
1.082,0.07,0.86,0.01,0.60,0.09,0.19,-0.32,-1.99,-0.55,976.22
1.084,0.07,0.86,0.01,0.60,0.09,0.19,-0.35,-2.07,-0.35,976.22
1.085,0.07,0.86,0.01,0.23,-0.94,-0.01,-0.35,-2.07,-0.35,976.22
1.086,0.07,0.86,0.01,0.23,-0.94,-0.01,-0.35,-2.07,-0.35,976.24
1.1,0.09,0.83,0.01,0.23,-0.94,-0.01,-0.35,-2.07,-0.35,976.24
1.12,0.11,0.83,-0.01,0.23,-0.94,-0.01,-0.35,-2.07,-0.35,976.24
1.121,0.11,0.83,-0.01,0.23,-0.94,-0.01,-0.33,-2.34,0.05,976.24
1.121,0.11,0.83,-0.01,0.96,-1.64,-0.75,-0.33,-2.34,0.05,976.24
1.139,0.25,0.80,-0.06,0.96,-1.64,-0.75,-0.33,-2.34,0.05,976.24
1.144,0.25,0.80,-0.06,0.96,-1.64,-0.75,-0.33,-2.34,0.05,976.23
1.159,0.13,0.80,-0.14,0.96,-1.64,-0.75,-0.33,-2.34,0.05,976.23
1.159,0.13,0.80,-0.14,0.96,-1.64,-0.75,-0.30,-2.08,0.36,976.23
1.16,0.13,0.80,-0.14,0.74,-1.60,-0.85,-0.30,-2.08,0.36,976.23
1.178,0.07,0.81,-0.26,0.74,-1.60,-0.85,-0.30,-2.08,0.36,976.23
1.198,0.09,0.82,-0.36,0.74,-1.60,-0.85,-0.30,-2.08,0.36,976.23
1.199,0.09,0.82,-0.36,0.74,-1.60,-0.85,-0.06,-1.97,0.51,976.23
1.2,0.09,0.82,-0.36,1.04,-1.88,-2.35,-0.06,-1.97,0.51,976.23
1.204,0.09,0.82,-0.36,1.04,-1.88,-2.35,-0.06,-1.97,0.51,976.22
1.218,0.07,0.84,-0.40,1.04,-1.88,-2.35,-0.06,-1.97,0.51,976.22
1.239,0.02,0.80,-0.42,1.04,-1.88,-2.35,-0.06,-1.97,0.51,976.22
1.24,0.02,0.80,-0.42,1.04,-1.88,-2.35,0.24,-2.34,0.72,976.22
1.24,0.02,0.80,-0.42,-0.16,-1.73,-4.43,0.24,-2.34,0.72,976.22
1.261,-0.06,0.75,-0.44,-0.16,-1.73,-4.43,0.24,-2.34,0.72,976.22
1.275,-0.06,0.75,-0.44,-0.16,-1.73,-4.43,0.24,-2.34,0.72,976.21
1.277,-0.09,0.77,-0.42,-0.16,-1.73,-4.43,0.24,-2.34,0.72,976.21
1.278,-0.09,0.77,-0.42,-0.16,-1.73,-4.43,0.55,-3.13,0.77,976.21
1.279,-0.09,0.77,-0.42,-0.51,-1.68,-4.03,0.55,-3.13,0.77,976.21
1.297,0.04,0.80,-0.39,-0.51,-1.68,-4.03,0.55,-3.13,0.77,976.21
1.318,0.16,0.82,-0.30,-0.51,-1.68,-4.03,0.55,-3.13,0.77,976.21
1.321,0.16,0.82,-0.30,-0.51,-1.68,-4.03,0.96,-4.03,0.75,976.21
1.323,0.16,0.82,-0.30,-1.73,-2.04,-3.68,0.96,-4.03,0.75,976.21
1.325,0.16,0.82,-0.30,-1.73,-2.04,-3.68,0.96,-4.03,0.75,976.22
1.338,0.22,0.87,-0.19,-1.73,-2.04,-3.68,0.96,-4.03,0.75,976.22
1.36,0.21,0.88,-0.02,-1.73,-2.04,-3.68,0.96,-4.03,0.75,976.22
1.362,0.21,0.88,-0.02,-1.73,-2.04,-3.68,1.05,-3.30,0.43,976.22
1.363,0.21,0.88,-0.02,0.49,-1.16,-0.65,1.05,-3.30,0.43,976.22
1.384,0.11,0.81,-0.08,0.49,-1.16,-0.65,1.05,-3.30,0.43,976.22
1.387,0.11,0.81,-0.08,0.49,-1.16,-0.65,1.05,-3.30,0.43,976.24
1.397,-0.13,0.84,-0.37,0.49,-1.16,-0.65,1.05,-3.30,0.43,976.24
1.398,-0.13,0.84,-0.37,0.49,-1.16,-0.65,0.64,-0.92,-0.34,976.24
1.398,-0.13,0.84,-0.37,0.65,-1.13,-0.36,0.64,-0.92,-0.34,976.24
1.419,-0.39,1.62,-0.61,0.65,-1.13,-0.36,0.64,-0.92,-0.34,976.24
1.438,1.26,2.13,1.04,0.65,-1.13,-0.36,0.64,-0.92,-0.34,976.24
1.443,1.26,2.13,1.04,0.65,-1.13,-0.36,0.15,0.38,0.38,976.24
1.446,1.26,2.13,1.04,-2.77,1.16,-2.11,0.15,0.38,0.38,976.24
1.45,1.26,2.13,1.04,-2.77,1.16,-2.11,0.15,0.38,0.38,976.25
1.466,1.40,1.68,-0.53,-2.77,1.16,-2.11,0.15,0.38,0.38,976.25
1.477,1.40,1.68,-0.53,4.08,5.54,1.69,0.15,0.38,0.38,976.25
1.478,-0.90,0.81,-0.45,4.08,5.54,1.69,0.15,0.38,0.38,976.25
1.479,-0.90,0.81,-0.45,4.08,5.54,1.69,0.54,0.71,0.40,976.25
1.495,-0.57,0.32,-0.09,4.08,5.54,1.69,0.54,0.71,0.40,976.25
1.504,-0.57,0.32,-0.09,4.08,5.54,1.69,0.54,0.71,0.40,976.24
1.515,-0.21,0.95,-0.93,4.08,5.54,1.69,0.54,0.71,0.40,976.24
1.516,-0.21,0.95,-0.93,4.08,5.54,1.69,0.79,-0.18,-1.99,976.24
1.518,-0.21,0.95,-0.93,4.77,5.40,1.97,0.79,-0.18,-1.99,976.24
1.534,-0.04,1.35,-0.16,4.77,5.40,1.97,0.79,-0.18,-1.99,976.24
1.554,-0.04,1.35,-0.16,-3.24,-1.15,-1.88,0.79,-0.18,-1.99,976.24
1.555,0.11,0.91,-0.18,-3.24,-1.15,-1.88,0.79,-0.18,-1.99,976.24
1.555,0.11,0.91,-0.18,-3.24,-1.15,-1.88,0.36,-0.38,-0.95,976.24
1.563,0.11,0.91,-0.18,-3.24,-1.15,-1.88,0.36,-0.38,-0.95,976.22
1.573,-0.31,0.85,-0.30,-3.24,-1.15,-1.88,0.36,-0.38,-0.95,976.22
1.593,-0.22,1.04,-0.26,-3.24,-1.15,-1.88,0.36,-0.38,-0.95,976.22
1.595,-0.22,1.04,-0.26,-3.24,-1.15,-1.88,0.34,-0.31,-0.83,976.22
1.595,-0.22,1.04,-0.26,-1.53,-0.50,-0.30,0.34,-0.31,-0.83,976.22
1.614,0.14,1.02,-0.29,-1.53,-0.50,-0.30,0.34,-0.31,-0.83,976.22
1.624,0.14,1.02,-0.29,-1.53,-0.50,-0.30,0.34,-0.31,-0.83,976.23
1.634,0.06,0.97,-0.42,-1.53,-0.50,-0.30,0.34,-0.31,-0.83,976.23
1.637,0.06,0.97,-0.42,-1.53,-0.50,-0.30,0.35,-0.35,-0.64,976.23
1.638,0.06,0.97,-0.42,-1.23,-0.47,-0.17,0.35,-0.35,-0.64,976.23
1.654,-0.16,0.95,-0.48,-1.23,-0.47,-0.17,0.35,-0.35,-0.64,976.23
1.688,-0.14,0.97,-0.39,-1.23,-0.47,-0.17,0.35,-0.35,-0.64,976.23
1.692,-0.14,0.97,-0.39,-1.23,-0.47,-0.17,0.22,0.12,-0.69,976.23
1.694,-0.14,0.97,-0.39,0.49,0.03,-1.51,0.22,0.12,-0.69,976.23
1.696,-0.14,0.97,-0.39,0.49,0.03,-1.51,0.22,0.12,-0.69,976.24
1.697,-0.07,0.98,-0.31,0.49,0.03,-1.51,0.22,0.12,-0.69,976.24
1.713,0.02,0.99,-0.28,0.49,0.03,-1.51,0.22,0.12,-0.69,976.24
1.717,0.02,0.99,-0.28,0.49,0.03,-1.51,0.03,-0.22,-0.63,976.24
1.719,0.02,0.99,-0.28,0.00,0.04,-0.83,0.03,-0.22,-0.63,976.24
1.733,-0.04,0.96,-0.29,0.00,0.04,-0.83,0.03,-0.22,-0.63,976.24
1.744,-0.04,0.96,-0.29,0.00,0.04,-0.83,0.03,-0.22,-0.63,976.25
1.752,-0.17,0.94,-0.31,0.00,0.04,-0.83,0.03,-0.22,-0.63,976.25
1.753,-0.17,0.94,-0.31,0.00,0.04,-0.83,-0.01,-0.12,-0.67,976.25
1.753,-0.17,0.94,-0.31,0.26,0.05,-0.82,-0.01,-0.12,-0.67,976.25
1.78,-0.14,0.97,-0.28,0.26,0.05,-0.82,-0.01,-0.12,-0.67,976.25
1.793,-0.05,0.95,-0.27,0.26,0.05,-0.82,-0.01,-0.12,-0.67,976.25
1.795,-0.05,0.95,-0.27,0.26,0.05,-0.82,-0.01,0.15,-0.73,976.25
1.797,-0.05,0.95,-0.27,0.01,-0.15,-0.50,-0.01,0.15,-0.73,976.25
1.817,-0.05,0.95,-0.27,0.01,-0.15,-0.50,-0.01,0.15,-0.73,976.25
1.821,0.04,0.95,-0.29,0.01,-0.15,-0.50,-0.01,0.15,-0.73,976.25
1.831,-0.02,0.95,-0.27,0.01,-0.15,-0.50,-0.01,0.15,-0.73,976.25
1.834,-0.02,0.95,-0.27,0.01,-0.15,-0.50,0.03,-0.09,-0.83,976.25
1.836,-0.02,0.95,-0.27,1.33,-0.19,-0.29,0.03,-0.09,-0.83,976.25
1.862,-0.07,0.95,-0.23,1.33,-0.19,-0.29,0.03,-0.09,-0.83,976.25
1.902,-0.07,0.95,-0.23,1.33,-0.19,-0.29,0.03,-0.09,-0.83,976.25
1.905,-0.07,0.95,-0.23,1.74,-0.10,-0.26,0.03,-0.09,-0.83,976.25
1.907,-0.06,0.93,-0.26,1.74,-0.10,-0.26,0.03,-0.09,-0.83,976.25
1.909,-0.06,0.93,-0.26,1.74,-0.10,-0.26,0.10,-0.12,-1.15,976.25
1.911,-0.03,0.94,-0.27,1.74,-0.10,-0.26,0.10,-0.12,-1.15,976.25
1.913,-0.01,0.97,-0.28,1.74,-0.10,-0.26,0.10,-0.12,-1.15,976.25
1.915,-0.01,0.97,-0.28,1.74,-0.10,-0.26,0.17,-0.23,-1.49,976.25
1.917,-0.01,0.97,-0.28,1.87,-0.05,-0.01,0.17,-0.23,-1.49,976.25
1.925,-0.01,0.97,-0.28,1.87,-0.05,-0.01,0.17,-0.23,-1.49,976.24
1.931,0.07,0.99,-0.27,1.87,-0.05,-0.01,0.17,-0.23,-1.49,976.24
1.97,-0.05,0.90,-0.32,1.87,-0.05,-0.01,0.17,-0.23,-1.49,976.24
1.973,-0.05,0.90,-0.32,1.87,-0.05,-0.01,0.17,-0.19,-2.02,976.24
1.976,-0.05,0.90,-0.32,3.11,0.33,-0.32,0.17,-0.19,-2.02,976.24
1.977,-0.29,0.81,-0.39,3.11,0.33,-0.32,0.17,-0.19,-2.02,976.24
1.996,-0.29,0.81,-0.39,3.11,0.33,-0.32,0.17,-0.19,-2.02,976.24
1.998,-0.53,0.77,-0.37,3.11,0.33,-0.32,0.17,-0.19,-2.02,976.24
1.999,-0.53,0.77,-0.37,3.11,0.33,-0.32,0.19,-0.08,-2.56,976.24
2.001,-0.53,0.77,-0.37,3.94,0.70,-0.26,0.19,-0.08,-2.56,976.24
2.009,-0.59,0.89,-0.30,3.94,0.70,-0.26,0.19,-0.08,-2.56,976.24
2.029,-0.46,1.07,-0.26,3.94,0.70,-0.26,0.19,-0.08,-2.56,976.24
2.031,-0.46,1.07,-0.26,3.94,0.70,-0.26,0.21,-0.36,-2.68,976.24
2.032,-0.46,1.07,-0.26,0.25,-0.10,-0.87,0.21,-0.36,-2.68,976.24
2.044,-0.46,1.07,-0.26,0.25,-0.10,-0.87,0.21,-0.36,-2.68,976.25
2.048,-0.57,1.07,-0.22,0.25,-0.10,-0.87,0.21,-0.36,-2.68,976.25
2.075,-0.75,1.04,-0.22,0.25,-0.10,-0.87,0.21,-0.36,-2.68,976.25
2.077,-0.75,1.04,-0.22,0.25,-0.10,-0.87,0.25,-0.74,-2.77,976.25
2.078,-0.75,1.04,-0.22,-0.04,2.81,0.25,0.25,-0.74,-2.77,976.25
2.11,-0.74,1.15,-0.25,-0.04,2.81,0.25,0.25,-0.74,-2.77,976.25
2.112,-0.74,1.15,-0.25,-0.04,2.81,0.25,0.25,-0.74,-2.77,976.24
2.114,-0.70,1.76,-0.26,-0.04,2.81,0.25,0.25,-0.74,-2.77,976.24
2.115,-0.70,1.76,-0.26,-0.04,2.81,0.25,0.37,-1.26,-2.96,976.24
2.117,-0.70,1.76,-0.26,0.91,3.52,0.04,0.37,-1.26,-2.96,976.24
2.127,-0.21,1.96,-0.15,0.91,3.52,0.04,0.37,-1.26,-2.96,976.24
2.148,0.09,1.30,-0.11,0.91,3.52,0.04,0.37,-1.26,-2.96,976.24
2.15,0.09,1.30,-0.11,0.91,3.52,0.04,0.38,-2.30,-3.23,976.24
2.151,0.09,1.30,-0.11,2.34,9.80,-0.37,0.38,-2.30,-3.23,976.24
2.187,0.09,1.30,-0.11,2.34,9.80,-0.37,0.38,-2.30,-3.23,976.26
2.19,-0.20,0.67,-0.23,2.34,9.80,-0.37,0.38,-2.30,-3.23,976.26
2.191,-0.85,0.50,-0.50,2.34,9.80,-0.37,0.38,-2.30,-3.23,976.26
2.191,-0.85,0.50,-0.50,2.34,9.80,-0.37,0.58,-0.59,-3.54,976.26
2.192,-0.85,0.50,-0.50,5.30,3.09,-1.02,0.58,-0.59,-3.54,976.26
2.212,-1.08,0.22,-0.60,5.30,3.09,-1.02,0.58,-0.59,-3.54,976.26
2.228,-1.08,0.22,-0.60,5.30,3.09,-1.02,0.58,-0.59,-3.54,976.26
2.23,-1.11,0.00,-0.34,5.30,3.09,-1.02,0.58,-0.59,-3.54,976.26
2.23,-1.11,0.00,-0.34,5.30,3.09,-1.02,0.53,1.72,-2.85,976.26
2.231,-1.11,0.00,-0.34,5.57,4.04,-0.33,0.53,1.72,-2.85,976.26
2.245,-0.52,0.08,-0.00,5.57,4.04,-0.33,0.53,1.72,-2.85,976.26
2.265,0.01,0.26,-0.06,5.57,4.04,-0.33,0.53,1.72,-2.85,976.26
2.266,0.01,0.26,-0.06,5.57,4.04,-0.33,-0.28,0.16,-0.15,976.26
2.267,0.01,0.26,-0.06,-0.18,-2.97,-0.63,-0.28,0.16,-0.15,976.26
2.291,0.01,0.26,-0.06,-0.18,-2.97,-0.63,-0.28,0.16,-0.15,976.25
2.291,-0.24,0.20,-0.02,-0.18,-2.97,-0.63,-0.28,0.16,-0.15,976.25
2.305,-0.52,0.17,0.16,-0.18,-2.97,-0.63,-0.28,0.16,-0.15,976.25
2.306,-0.52,0.17,0.16,-0.18,-2.97,-0.63,-0.61,-0.80,2.32,976.25
2.306,-0.52,0.17,0.16,5.84,-2.65,2.26,-0.61,-0.80,2.32,976.25
2.325,-0.40,0.29,0.12,5.84,-2.65,2.26,-0.61,-0.80,2.32,976.25
2.344,-0.40,0.29,0.12,5.84,-2.65,2.26,-0.61,-0.80,2.32,976.25
2.345,-0.32,0.26,0.09,5.84,-2.65,2.26,-0.61,-0.80,2.32,976.25
2.346,-0.32,0.26,0.09,5.84,-2.65,2.26,-0.70,-0.02,3.42,976.25
2.346,-0.32,0.26,0.09,5.04,-3.71,2.07,-0.70,-0.02,3.42,976.25
2.366,-0.42,0.29,0.01,5.04,-3.71,2.07,-0.70,-0.02,3.42,976.25
2.383,-0.49,0.29,-0.04,5.04,-3.71,2.07,-0.70,-0.02,3.42,976.25
2.385,-0.49,0.29,-0.04,5.04,-3.71,2.07,-0.76,0.38,4.04,976.25
2.386,-0.49,0.29,-0.04,2.65,-4.18,2.40,-0.76,0.38,4.04,976.25
2.402,-0.49,0.29,-0.04,2.65,-4.18,2.40,-0.76,0.38,4.04,976.25
2.404,-0.53,0.18,-0.03,2.65,-4.18,2.40,-0.76,0.38,4.04,976.25
2.424,-0.56,0.07,0.06,2.65,-4.18,2.40,-0.76,0.38,4.04,976.25
2.426,-0.56,0.07,0.06,2.65,-4.18,2.40,-0.54,-0.65,4.70,976.25
2.427,-0.56,0.07,0.06,-0.14,-6.12,1.31,-0.54,-0.65,4.70,976.25
2.444,-0.45,0.11,-0.10,-0.14,-6.12,1.31,-0.54,-0.65,4.70,976.25
2.477,-0.45,0.11,-0.10,-0.14,-6.12,1.31,-0.54,-0.65,4.70,976.25
2.478,-0.50,0.35,-0.50,-0.14,-6.12,1.31,-0.54,-0.65,4.70,976.25
2.479,-0.50,0.35,-0.50,-0.14,-6.12,1.31,-0.01,-0.96,4.91,976.25
2.48,-0.50,0.35,-0.50,-1.68,-6.83,1.13,-0.01,-0.96,4.91,976.25
2.483,-0.90,0.57,-0.31,-1.68,-6.83,1.13,-0.01,-0.96,4.91,976.25
2.509,-0.93,0.75,-0.24,-1.68,-6.83,1.13,-0.01,-0.96,4.91,976.25
2.511,-0.93,0.75,-0.24,-1.68,-6.83,1.13,0.22,0.04,3.89,976.25
2.512,-0.93,0.75,-0.24,-3.86,-5.60,-1.65,0.22,0.04,3.89,976.25
2.523,-0.93,0.75,-0.24,-3.86,-5.60,-1.65,0.22,0.04,3.89,976.24
2.525,-0.84,0.96,-0.31,-3.86,-5.60,-1.65,0.22,0.04,3.89,976.24
2.542,-1.03,1.16,-0.23,-3.86,-5.60,-1.65,0.22,0.04,3.89,976.24
2.544,-1.03,1.16,-0.23,-3.86,-5.60,-1.65,0.39,-0.02,3.25,976.24
2.544,-1.03,1.16,-0.23,-7.96,0.24,-1.07,0.39,-0.02,3.25,976.24
2.567,-0.77,1.37,-0.46,-7.96,0.24,-1.07,0.39,-0.02,3.25,976.24
2.581,-0.56,1.57,-0.66,-7.96,0.24,-1.07,0.39,-0.02,3.25,976.24
2.582,-0.56,1.57,-0.66,-7.96,0.24,-1.07,0.39,-0.32,2.58,976.24
2.583,-0.56,1.57,-0.66,-8.73,0.19,-0.92,0.39,-0.32,2.58,976.24
2.584,-0.56,1.57,-0.66,-8.73,0.19,-0.92,0.39,-0.32,2.58,976.24
2.602,-0.60,1.66,-0.48,-8.73,0.19,-0.92,0.39,-0.32,2.58,976.24
2.621,-0.61,1.37,-0.52,-8.73,0.19,-0.92,0.39,-0.32,2.58,976.24
2.622,-0.61,1.37,-0.52,-8.73,0.19,-0.92,0.30,-0.58,1.02,976.24
2.623,-0.61,1.37,-0.52,-6.13,5.73,-3.49,0.30,-0.58,1.02,976.24
2.641,-0.33,1.11,-0.40,-6.13,5.73,-3.49,0.30,-0.58,1.02,976.24
2.642,-0.33,1.11,-0.40,-6.13,5.73,-3.49,0.30,-0.58,1.02,976.24
2.66,-0.31,1.60,-0.59,-6.13,5.73,-3.49,0.30,-0.58,1.02,976.24
2.661,-0.31,1.60,-0.59,-6.13,5.73,-3.49,0.41,-0.42,-1.25,976.24
2.664,-0.31,1.60,-0.59,-3.37,4.03,-2.98,0.41,-0.42,-1.25,976.24
2.681,0.44,1.59,0.15,-3.37,4.03,-2.98,0.41,-0.42,-1.25,976.24
2.701,0.67,2.67,-0.88,-3.37,4.03,-2.98,0.41,-0.42,-1.25,976.24
2.704,0.67,2.67,-0.88,-3.37,4.03,-2.98,0.48,0.40,-1.73,976.24
2.706,0.67,2.67,-0.88,-2.73,4.07,-2.74,0.48,0.40,-1.73,976.24
2.709,0.67,2.67,-0.88,-2.73,4.07,-2.74,0.48,0.40,-1.73,976.26
2.721,2.01,3.74,1.51,-2.73,4.07,-2.74,0.48,0.40,-1.73,976.26
2.74,0.45,-0.06,-1.29,-2.73,4.07,-2.74,0.48,0.40,-1.73,976.26
2.744,0.45,-0.06,-1.29,-2.73,4.07,-2.74,0.47,1.17,-1.18,976.26
2.746,0.45,-0.06,-1.29,11.69,16.73,4.90,0.47,1.17,-1.18,976.26
2.759,-1.50,-1.33,-0.93,11.69,16.73,4.90,0.47,1.17,-1.18,976.26
2.763,-1.50,-1.33,-0.93,11.69,16.73,4.90,0.47,1.17,-1.18,976.28
2.792,-1.91,0.57,-0.22,11.69,16.73,4.90,0.47,1.17,-1.18,976.28
2.796,-1.91,0.57,-0.22,11.69,16.73,4.90,1.00,1.38,-4.41,976.28
2.797,-1.91,0.57,-0.22,-6.59,-11.40,-5.05,1.00,1.38,-4.41,976.28
2.815,-0.95,1.82,-0.50,-6.59,-11.40,-5.05,1.00,1.38,-4.41,976.28
2.823,-0.26,0.82,-0.47,-6.59,-11.40,-5.05,1.00,1.38,-4.41,976.28
2.825,-0.26,0.82,-0.47,-6.59,-11.40,-5.05,0.27,-0.33,-1.99,976.28
2.826,-0.26,0.82,-0.47,-5.78,-10.92,-4.93,0.27,-0.33,-1.99,976.28
2.828,-0.26,0.82,-0.47,-5.78,-10.92,-4.93,0.27,-0.33,-1.99,976.27
2.838,0.04,0.68,-0.39,-5.78,-10.92,-4.93,0.27,-0.33,-1.99,976.27
2.859,-0.55,0.83,-0.30,-5.78,-10.92,-4.93,0.27,-0.33,-1.99,976.27
2.861,-0.55,0.83,-0.30,-5.78,-10.92,-4.93,0.13,-0.34,-0.94,976.27
2.863,-0.55,0.83,-0.30,0.39,2.74,-1.35,0.13,-0.34,-0.94,976.27
2.884,-0.81,0.92,-0.28,0.39,2.74,-1.35,0.13,-0.34,-0.94,976.27
2.886,-0.81,0.92,-0.28,0.39,2.74,-1.35,0.13,-0.34,-0.94,976.26
2.897,-0.34,0.92,-0.32,0.39,2.74,-1.35,0.13,-0.34,-0.94,976.26
2.899,-0.34,0.92,-0.32,-0.92,0.84,0.20,0.13,-0.34,-0.94,976.26
2.9,-0.34,0.92,-0.32,-0.92,0.84,0.20,0.19,0.12,-1.37,976.26
2.917,-0.15,0.90,-0.33,-0.92,0.84,0.20,0.19,0.12,-1.37,976.26
2.938,-0.41,1.03,-0.31,-0.92,0.84,0.20,0.19,0.12,-1.37,976.26
2.94,-0.41,1.03,-0.31,-0.92,0.84,0.20,0.33,-0.47,-1.42,976.26
2.941,-0.41,1.03,-0.31,-0.42,1.13,0.20,0.33,-0.47,-1.42,976.26
2.942,-0.41,1.03,-0.31,-0.42,1.13,0.20,0.33,-0.47,-1.42,976.27
2.957,-0.53,1.52,-0.24,-0.42,1.13,0.20,0.33,-0.47,-1.42,976.27
2.991,-0.44,1.84,-0.30,-0.42,1.13,0.20,0.33,-0.47,-1.42,976.27
2.995,-0.44,1.84,-0.30,-0.42,1.13,0.20,0.44,-0.67,-1.78,976.27
2.997,-0.44,1.84,-0.30,2.18,4.05,0.26,0.44,-0.67,-1.78,976.27
2.998,-0.31,2.17,-0.33,2.18,4.05,0.26,0.44,-0.67,-1.78,976.27
3.012,-0.31,2.17,-0.33,2.18,4.05,0.26,0.44,-0.67,-1.78,976.28
3.016,0.23,2.42,-0.22,2.18,4.05,0.26,0.44,-0.67,-1.78,976.28
3.017,0.23,2.42,-0.22,2.18,4.05,0.26,0.60,-1.21,-2.04,976.28
3.018,0.23,2.42,-0.22,4.63,14.12,0.20,0.60,-1.21,-2.04,976.28
3.036,0.58,1.57,-0.04,4.63,14.12,0.20,0.60,-1.21,-2.04,976.28
3.056,-0.22,0.23,0.36,4.63,14.12,0.20,0.60,-1.21,-2.04,976.28
3.058,-0.22,0.23,0.36,4.63,14.12,0.20,0.87,-1.79,-2.19,976.28
3.06,-0.22,0.23,0.36,5.31,14.55,-0.05,0.87,-1.79,-2.19,976.28
3.062,-0.22,0.23,0.36,5.31,14.55,-0.05,0.87,-1.79,-2.19,976.28
3.088,-0.43,-0.67,0.08,5.31,14.55,-0.05,0.87,-1.79,-2.19,976.28
3.096,0.04,-0.85,-0.12,5.31,14.55,-0.05,0.87,-1.79,-2.19,976.28
3.098,0.04,-0.85,-0.12,5.31,14.55,-0.05,0.72,-0.84,-1.63,976.28
3.1,0.04,-0.85,-0.12,7.15,-2.17,3.89,0.72,-0.84,-1.63,976.28
3.127,0.20,0.26,0.01,7.15,-2.17,3.89,0.72,-0.84,-1.63,976.28
3.13,0.20,0.26,0.01,7.15,-2.17,3.89,0.72,-0.84,-1.63,976.28
3.135,-0.26,0.77,0.02,7.15,-2.17,3.89,0.72,-0.84,-1.63,976.28
3.137,-0.26,0.77,0.02,7.15,-2.17,3.89,-0.52,-0.29,1.06,976.28
3.137,-0.26,0.77,0.02,7.01,-5.56,2.07,-0.52,-0.29,1.06,976.28
3.165,-0.72,0.38,-0.07,7.01,-5.56,2.07,-0.52,-0.29,1.06,976.28
3.189,-0.66,0.11,-0.17,7.01,-5.56,2.07,-0.52,-0.29,1.06,976.28
3.191,-0.66,0.11,-0.17,7.01,-5.56,2.07,-1.25,0.96,2.42,976.28
3.192,-0.66,0.11,-0.17,6.19,-6.21,1.96,-1.25,0.96,2.42,976.28
3.192,-0.66,0.11,-0.17,6.19,-6.21,1.96,-1.25,0.96,2.42,976.27
3.193,-0.55,0.33,-0.23,6.19,-6.21,1.96,-1.25,0.96,2.42,976.27
3.213,-0.72,0.44,-0.35,6.19,-6.21,1.96,-1.25,0.96,2.42,976.27
3.215,-0.72,0.44,-0.35,6.19,-6.21,1.96,-1.28,0.81,3.16,976.27
3.217,-0.72,0.44,-0.35,-1.01,-4.85,0.56,-1.28,0.81,3.16,976.27
3.233,-0.73,0.33,-0.36,-1.01,-4.85,0.56,-1.28,0.81,3.16,976.27
3.242,-0.73,0.33,-0.36,-1.01,-4.85,0.56,-1.28,0.81,3.16,976.26
3.258,-0.87,0.21,-0.31,-1.01,-4.85,0.56,-1.28,0.81,3.16,976.26
3.261,-0.87,0.21,-0.31,-1.01,-4.85,0.56,-1.33,0.43,3.69,976.26
3.263,-0.87,0.21,-0.31,-3.44,-5.01,-1.56,-1.33,0.43,3.69,976.26
3.274,-0.76,0.49,-0.18,-3.44,-5.01,-1.56,-1.33,0.43,3.69,976.26
3.302,-0.50,0.87,-0.26,-3.44,-5.01,-1.56,-1.33,0.43,3.69,976.26
3.304,-0.50,0.87,-0.26,-3.44,-5.01,-1.56,-1.02,0.56,3.61,976.26
3.305,-0.50,0.87,-0.26,-4.62,-5.49,-1.80,-1.02,0.56,3.61,976.26
3.306,-0.50,0.87,-0.26,-4.62,-5.49,-1.80,-1.02,0.56,3.61,976.27
3.313,-0.69,0.92,-0.39,-4.62,-5.49,-1.80,-1.02,0.56,3.61,976.27
3.332,-0.78,0.91,-0.53,-4.62,-5.49,-1.80,-1.02,0.56,3.61,976.27
3.334,-0.78,0.91,-0.53,-4.62,-5.49,-1.80,-0.60,0.88,3.29,976.27
3.335,-0.78,0.91,-0.53,-4.52,-1.56,-1.31,-0.60,0.88,3.29,976.27
3.37,-0.90,1.01,-0.56,-4.52,-1.56,-1.31,-0.60,0.88,3.29,976.27
3.373,-0.90,1.01,-0.56,-4.52,-1.56,-1.31,-0.60,0.88,3.29,976.28
3.377,-0.61,1.08,-0.42,-4.52,-1.56,-1.31,-0.60,0.88,3.29,976.28
3.379,-0.61,1.08,-0.42,-4.52,-1.56,-1.31,-0.36,1.06,2.52,976.28
3.382,-0.61,1.08,-0.42,-6.52,0.59,-3.50,-0.36,1.06,2.52,976.28
3.395,-0.28,1.14,-0.46,-6.52,0.59,-3.50,-0.36,1.06,2.52,976.28
3.412,-0.36,1.29,-0.41,-6.52,0.59,-3.50,-0.36,1.06,2.52,976.28
3.414,-0.36,1.29,-0.41,-6.52,0.59,-3.50,-0.13,-0.36,2.17,976.28
3.415,-0.36,1.29,-0.41,-7.17,0.53,-3.49,-0.13,-0.36,2.17,976.28
3.423,-0.36,1.29,-0.41,-7.17,0.53,-3.49,-0.13,-0.36,2.17,976.28
3.432,-0.15,1.43,-0.43,-7.17,0.53,-3.49,-0.13,-0.36,2.17,976.28
3.452,-0.01,1.32,-0.45,-7.17,0.53,-3.49,-0.13,-0.36,2.17,976.28
3.454,-0.01,1.32,-0.45,-7.17,0.53,-3.49,0.22,-1.41,1.27,976.28
3.456,-0.01,1.32,-0.45,-2.57,3.34,-2.68,0.22,-1.41,1.27,976.28
3.479,-0.15,1.13,-0.23,-2.57,3.34,-2.68,0.22,-1.41,1.27,976.28
3.513,-0.15,1.13,-0.23,-2.57,3.34,-2.68,0.22,-1.41,1.27,976.28
3.515,-0.04,1.03,-0.26,-2.57,3.34,-2.68,0.22,-1.41,1.27,976.28
3.517,-0.04,1.03,-0.26,-2.57,3.34,-2.68,0.44,-0.66,-0.47,976.28
3.518,-0.04,1.03,-0.26,-0.43,2.06,-1.33,0.44,-0.66,-0.47,976.28
3.52,-0.01,0.88,-0.11,-0.43,2.06,-1.33,0.44,-0.66,-0.47,976.28
3.53,0.14,0.65,-0.12,-0.43,2.06,-1.33,0.44,-0.66,-0.47,976.28
3.534,0.14,0.65,-0.12,-0.43,2.06,-1.33,0.56,-0.28,-1.27,976.28
3.535,0.14,0.65,-0.12,0.06,2.09,-1.11,0.56,-0.28,-1.27,976.28
3.541,0.14,0.65,-0.12,0.06,2.09,-1.11,0.56,-0.28,-1.27,976.29
3.549,-0.30,1.97,-1.85,0.06,2.09,-1.11,0.56,-0.28,-1.27,976.29
3.569,0.49,5.02,2.13,0.06,2.09,-1.11,0.56,-0.28,-1.27,976.29
3.571,0.49,5.02,2.13,0.06,2.09,-1.11,0.56,0.59,-1.53,976.29
3.572,0.49,5.02,2.13,0.66,2.22,-4.54,0.56,0.59,-1.53,976.29
3.597,1.50,1.33,-0.30,0.66,2.22,-4.54,0.56,0.59,-1.53,976.29
3.601,1.50,1.33,-0.30,0.66,2.22,-4.54,0.56,0.59,-1.53,976.30
3.621,-0.03,-1.35,-1.61,0.66,2.22,-4.54,0.56,0.59,-1.53,976.30
3.622,-0.03,-1.35,-1.61,0.66,2.22,-4.54,0.93,-0.24,-1.73,976.30
3.623,-0.03,-1.35,-1.61,8.11,7.20,3.27,0.93,-0.24,-1.73,976.30
3.628,-1.34,-0.48,-0.66,8.11,7.20,3.27,0.93,-0.24,-1.73,976.30
3.648,-1.41,1.62,-0.33,8.11,7.20,3.27,0.93,-0.24,-1.73,976.30
3.649,-1.41,1.62,-0.33,8.11,7.20,3.27,0.88,1.17,-3.54,976.30
3.65,-1.41,1.62,-0.33,9.08,7.49,3.63,0.88,1.17,-3.54,976.30
3.67,-1.41,1.62,-0.33,9.08,7.49,3.63,0.88,1.17,-3.54,976.30
3.673,-1.22,1.68,-0.21,9.08,7.49,3.63,0.88,1.17,-3.54,976.30
3.705,-0.32,0.51,-0.50,9.08,7.49,3.63,0.88,1.17,-3.54,976.30
3.707,-0.32,0.51,-0.50,9.08,7.49,3.63,0.15,-0.21,-1.42,976.30
3.709,-0.32,0.51,-0.50,-9.63,0.55,-0.98,0.15,-0.21,-1.42,976.30
3.71,0.05,0.72,-0.56,-9.63,0.55,-0.98,0.15,-0.21,-1.42,976.30
3.721,0.05,0.72,-0.56,-9.63,0.55,-0.98,0.15,-0.21,-1.42,976.30
3.727,-0.50,0.95,-0.29,-9.63,0.55,-0.98,0.15,-0.21,-1.42,976.30
3.73,-0.50,0.95,-0.29,-9.63,0.55,-0.98,0.04,-0.34,-0.63,976.30
3.731,-0.50,0.95,-0.29,1.06,-1.47,-1.49,0.04,-0.34,-0.63,976.30
3.748,-0.62,0.80,-0.24,1.06,-1.47,-1.49,0.04,-0.34,-0.63,976.30
3.768,-0.36,0.82,-0.17,1.06,-1.47,-1.49,0.04,-0.34,-0.63,976.30
3.771,-0.36,0.82,-0.17,1.06,-1.47,-1.49,0.00,0.20,-0.90,976.30
3.775,-0.36,0.82,-0.17,1.32,-1.31,-1.44,0.00,0.20,-0.90,976.30
3.802,-0.36,0.82,-0.17,1.32,-1.31,-1.44,0.00,0.20,-0.90,976.29
3.803,-0.24,1.01,-0.17,1.32,-1.31,-1.44,0.00,0.20,-0.90,976.29
3.807,-0.24,1.01,-0.17,0.17,0.34,1.09,0.00,0.20,-0.90,976.29
3.808,-0.21,0.98,-0.28,0.17,0.34,1.09,0.00,0.20,-0.90,976.29
3.809,-0.21,0.98,-0.28,0.17,0.34,1.09,0.18,-0.19,-0.91,976.29
3.844,-0.14,0.89,-0.31,0.17,0.34,1.09,0.18,-0.19,-0.91,976.29
3.845,-0.14,0.89,-0.31,0.17,0.34,1.09,0.18,-0.19,-0.91,976.29
3.846,-0.31,0.81,-0.22,0.17,0.34,1.09,0.18,-0.19,-0.91,976.29
3.847,-0.31,0.81,-0.22,0.17,0.34,1.09,0.41,-0.51,-1.40,976.29
3.847,-0.31,0.81,-0.22,2.49,0.80,0.36,0.41,-0.51,-1.40,976.29
3.866,-0.50,0.79,-0.26,2.49,0.80,0.36,0.41,-0.51,-1.40,976.29
3.886,-0.51,0.86,-0.32,2.49,0.80,0.36,0.41,-0.51,-1.40,976.29
3.892,-0.51,0.86,-0.32,2.49,0.80,0.36,0.59,-0.61,-1.93,976.29
3.893,-0.51,0.86,-0.32,3.10,1.23,0.41,0.59,-0.61,-1.93,976.29
3.911,-0.51,0.86,-0.32,3.10,1.23,0.41,0.59,-0.61,-1.93,976.29
3.912,-0.49,1.26,-0.31,3.10,1.23,0.41,0.59,-0.61,-1.93,976.29
3.928,-0.50,1.51,-0.38,3.10,1.23,0.41,0.59,-0.61,-1.93,976.29
3.93,-0.50,1.51,-0.38,3.10,1.23,0.41,0.71,-0.90,-2.20,976.29
3.931,-0.50,1.51,-0.38,1.08,2.53,0.14,0.71,-0.90,-2.20,976.29
3.945,-0.31,1.76,-0.48,1.08,2.53,0.14,0.71,-0.90,-2.20,976.29
3.961,-0.31,1.76,-0.48,1.08,2.53,0.14,0.71,-0.90,-2.20,976.31
3.966,-0.27,2.15,-0.47,1.08,2.53,0.14,0.71,-0.90,-2.20,976.31
3.968,-0.27,2.15,-0.47,1.08,2.53,0.14,0.84,-1.33,-2.53,976.31
3.97,-0.27,2.15,-0.47,3.20,11.23,-1.37,0.84,-1.33,-2.53,976.31
3.985,-0.13,1.91,-0.26,3.20,11.23,-1.37,0.84,-1.33,-2.53,976.31
4.018,-0.16,0.93,-0.09,3.20,11.23,-1.37,0.84,-1.33,-2.53,976.31
4.02,-0.16,0.93,-0.09,3.20,11.23,-1.37,0.97,-1.49,-2.70,976.31
4.021,-0.16,0.93,-0.09,3.95,11.90,-1.53,0.97,-1.49,-2.70,976.31
4.023,-0.16,0.93,-0.09,3.95,11.90,-1.53,0.97,-1.49,-2.70,976.30
4.028,-0.38,0.11,-0.18,3.95,11.90,-1.53,0.97,-1.49,-2.70,976.30
4.044,-0.74,-0.67,-0.31,3.95,11.90,-1.53,0.97,-1.49,-2.70,976.30
4.047,-0.74,-0.67,-0.31,3.95,11.90,-1.53,0.76,-0.07,-1.68,976.30
4.048,-0.74,-0.67,-0.31,5.59,4.34,1.21,0.76,-0.07,-1.68,976.30
4.064,-0.09,-0.99,0.50,5.59,4.34,1.21,0.76,-0.07,-1.68,976.30
4.096,-0.09,-0.99,0.50,5.59,4.34,1.21,0.76,-0.07,-1.68,976.28
4.098,0.24,0.24,0.00,5.59,4.34,1.21,0.76,-0.07,-1.68,976.28
4.098,0.24,0.24,0.00,5.59,4.34,1.21,-0.32,-0.07,0.84,976.28
4.099,0.24,0.24,0.00,5.58,-10.03,3.44,-0.32,-0.07,0.84,976.28
4.102,-0.07,1.01,0.06,5.58,-10.03,3.44,-0.32,-0.07,0.84,976.28
4.123,-0.07,1.01,0.06,4.79,-10.78,3.22,-0.32,-0.07,0.84,976.28
4.124,-0.65,0.66,0.05,4.79,-10.78,3.22,-0.32,-0.07,0.84,976.28
4.125,-0.65,0.66,0.05,4.79,-10.78,3.22,-0.88,0.14,2.98,976.28
4.141,-0.65,0.66,0.05,4.79,-10.78,3.22,-0.88,0.14,2.98,976.27
4.143,-0.74,0.35,-0.09,4.79,-10.78,3.22,-0.88,0.14,2.98,976.27
4.162,-0.67,0.46,-0.15,4.79,-10.78,3.22,-0.88,0.14,2.98,976.27
4.165,-0.67,0.46,-0.15,4.79,-10.78,3.22,-1.04,1.13,3.59,976.27
4.167,-0.67,0.46,-0.15,0.89,-0.48,2.60,-1.04,1.13,3.59,976.27
4.189,-0.69,0.35,-0.21,0.89,-0.48,2.60,-1.04,1.13,3.59,976.27
4.201,-0.69,0.35,-0.21,0.89,-0.48,2.60,-1.04,1.13,3.59,976.28
4.202,-0.71,0.26,-0.19,0.89,-0.48,2.60,-1.04,1.13,3.59,976.28
4.203,-0.71,0.26,-0.19,0.89,-0.48,2.60,-1.11,-0.04,4.42,976.28
4.204,-0.71,0.26,-0.19,-2.44,-4.54,0.39,-1.11,-0.04,4.42,976.28
4.221,-0.63,0.46,-0.06,-2.44,-4.54,0.39,-1.11,-0.04,4.42,976.28
4.243,-0.63,0.46,-0.06,-3.85,-5.17,0.04,-1.11,-0.04,4.42,976.28
4.247,-0.58,0.84,-0.19,-3.85,-5.17,0.04,-1.11,-0.04,4.42,976.28
4.249,-0.58,0.84,-0.19,-3.85,-5.17,0.04,-0.83,-0.48,4.54,976.28
4.263,-0.58,0.84,-0.19,-3.85,-5.17,0.04,-0.83,-0.48,4.54,976.28
4.266,-0.73,1.02,-0.36,-3.85,-5.17,0.04,-0.83,-0.48,4.54,976.28
4.296,-0.75,0.91,-0.28,-3.85,-5.17,0.04,-0.83,-0.48,4.54,976.28
4.298,-0.75,0.91,-0.28,-3.85,-5.17,0.04,-0.53,0.30,3.81,976.28
4.298,-0.75,0.91,-0.28,-4.66,-1.41,-0.32,-0.53,0.30,3.81,976.28
4.301,-0.55,0.88,-0.32,-4.66,-1.41,-0.32,-0.53,0.30,3.81,976.28
4.33,-0.55,0.88,-0.32,-4.66,-1.41,-0.32,-0.53,0.30,3.81,976.30
4.332,-0.62,1.06,-0.46,-4.66,-1.41,-0.32,-0.53,0.30,3.81,976.30
4.333,-0.62,1.06,-0.46,-4.66,-1.41,-0.32,-0.40,0.74,2.84,976.30
4.334,-0.62,1.06,-0.46,-5.55,0.18,-1.86,-0.40,0.74,2.84,976.30
4.341,-0.74,1.03,-0.46,-5.55,0.18,-1.86,-0.40,0.74,2.84,976.30
4.362,-0.74,0.94,-0.36,-5.55,0.18,-1.86,-0.40,0.74,2.84,976.30
4.364,-0.74,0.94,-0.36,-5.55,0.18,-1.86,-0.26,0.34,1.67,976.30
4.367,-0.74,0.94,-0.36,-6.07,0.13,-1.92,-0.26,0.34,1.67,976.30
4.391,-0.74,0.94,-0.36,-6.07,0.13,-1.92,-0.26,0.34,1.67,976.33
4.394,-0.35,1.00,-0.22,-6.07,0.13,-1.92,-0.26,0.34,1.67,976.33
4.399,-0.04,1.12,-0.25,-6.07,0.13,-1.92,-0.26,0.34,1.67,976.33
4.4,-0.04,1.12,-0.25,-6.07,0.13,-1.92,-0.19,-1.12,0.88,976.33
4.401,-0.04,1.12,-0.25,-5.96,0.48,-1.88,-0.19,-1.12,0.88,976.33
4.419,-0.03,1.19,-0.15,-5.96,0.48,-1.88,-0.19,-1.12,0.88,976.33
4.438,-0.03,1.00,-0.11,-5.96,0.48,-1.88,-0.19,-1.12,0.88,976.33
4.439,-0.03,1.00,-0.11,-5.96,0.48,-1.88,-0.05,-0.74,-0.00,976.33
4.44,-0.03,1.00,-0.11,-5.96,0.48,-1.88,-0.05,-0.74,-0.00,976.34
4.441,-0.03,1.00,-0.11,-0.23,1.54,-0.15,-0.05,-0.74,-0.00,976.34
4.46,0.06,0.99,-1.02,-0.23,1.54,-0.15,-0.05,-0.74,-0.00,976.34
4.479,-1.19,1.67,-1.80,-0.23,1.54,-0.15,-0.05,-0.74,-0.00,976.34
4.482,-1.19,1.67,-1.80,-0.23,1.54,-0.15,0.58,1.32,-1.68,976.34
4.484,-1.19,1.67,-1.80,0.29,1.58,0.08,0.58,1.32,-1.68,976.34
4.514,-0.48,3.02,-1.27,0.29,1.58,0.08,0.58,1.32,-1.68,976.34
4.518,-0.48,3.02,-1.27,0.29,1.58,0.08,0.58,1.32,-1.68,976.35
4.519,3.12,3.95,2.94,0.29,1.58,0.08,0.58,1.32,-1.68,976.35
4.521,3.12,3.95,2.94,0.29,1.58,0.08,0.40,0.93,-1.15,976.35
4.522,3.12,3.95,2.94,-4.22,9.24,-11.27,0.40,0.93,-1.15,976.35
4.541,0.88,-0.07,-1.08,-4.22,9.24,-11.27,0.40,0.93,-1.15,976.35
4.561,-0.68,-1.18,-1.02,-4.22,9.24,-11.27,0.40,0.93,-1.15,976.35
4.566,-0.68,-1.18,-1.02,-4.22,9.24,-11.27,1.05,-0.70,-1.62,976.35
4.57,-0.68,-1.18,-1.02,12.33,-0.34,5.08,1.05,-0.70,-1.62,976.35
4.573,-0.68,-1.18,-1.02,12.33,-0.34,5.08,1.05,-0.70,-1.62,976.35
4.579,-1.39,0.46,-0.91,12.33,-0.34,5.08,1.05,-0.70,-1.62,976.35
4.603,-1.69,1.86,-0.33,12.33,-0.34,5.08,1.05,-0.70,-1.62,976.35
4.605,-1.69,1.86,-0.33,12.33,-0.34,5.08,0.87,1.90,-3.83,976.35
4.606,-1.69,1.86,-0.33,13.26,0.06,5.46,0.87,1.90,-3.83,976.35
4.628,-1.23,1.16,-0.36,13.26,0.06,5.46,0.87,1.90,-3.83,976.35
4.629,-1.23,1.16,-0.36,13.26,0.06,5.46,0.87,1.90,-3.83,976.35
4.636,0.06,0.56,-0.36,13.26,0.06,5.46,0.87,1.90,-3.83,976.35
4.637,0.06,0.56,-0.36,13.26,0.06,5.46,0.12,-0.33,-1.13,976.35
4.639,0.06,0.56,-0.36,-11.09,2.71,-2.49,0.12,-0.33,-1.13,976.35
4.655,0.17,0.99,-0.35,-11.09,2.71,-2.49,0.12,-0.33,-1.13,976.35
4.676,-0.42,0.94,-0.31,-11.09,2.71,-2.49,0.12,-0.33,-1.13,976.35
4.678,-0.42,0.94,-0.31,-11.09,2.71,-2.49,0.11,-0.54,-0.25,976.35
4.678,-0.42,0.94,-0.31,2.51,-0.47,-0.58,0.11,-0.54,-0.25,976.35
4.679,-0.42,0.94,-0.31,2.51,-0.47,-0.58,0.11,-0.54,-0.25,976.36
4.697,-0.44,0.84,-0.30,2.51,-0.47,-0.58,0.11,-0.54,-0.25,976.36
4.715,-0.16,0.86,-0.25,2.51,-0.47,-0.58,0.11,-0.54,-0.25,976.36
4.716,-0.16,0.86,-0.25,2.51,-0.47,-0.58,0.18,0.03,-0.92,976.36
4.717,-0.16,0.86,-0.25,2.77,-0.32,-0.51,0.18,0.03,-0.92,976.36
4.736,-0.09,0.91,-0.25,2.77,-0.32,-0.51,0.18,0.03,-0.92,976.36
4.739,-0.09,0.91,-0.25,2.77,-0.32,-0.51,0.18,0.03,-0.92,976.35
4.755,-0.07,0.94,-0.33,2.77,-0.32,-0.51,0.18,0.03,-0.92,976.35
4.758,-0.07,0.94,-0.33,2.77,-0.32,-0.51,0.31,-0.45,-1.16,976.35
4.759,-0.07,0.94,-0.33,1.51,0.30,0.22,0.31,-0.45,-1.16,976.35
4.779,-0.34,0.81,-0.29,1.51,0.30,0.22,0.31,-0.45,-1.16,976.35
4.806,-0.44,0.76,-0.26,1.51,0.30,0.22,0.31,-0.45,-1.16,976.35
4.807,-0.44,0.76,-0.26,1.51,0.30,0.22,0.37,-0.43,-1.74,976.35
4.808,-0.44,0.76,-0.26,1.60,0.29,0.04,0.37,-0.43,-1.74,976.35
4.809,-0.44,0.76,-0.26,1.60,0.29,0.04,0.37,-0.43,-1.74,976.34
4.814,-0.45,0.82,-0.22,1.60,0.29,0.04,0.37,-0.43,-1.74,976.34
4.833,-0.44,1.01,-0.33,1.60,0.29,0.04,0.37,-0.43,-1.74,976.34
4.836,-0.44,1.01,-0.33,1.60,0.29,0.04,0.35,-0.41,-2.12,976.34
4.837,-0.44,1.01,-0.33,2.26,0.72,0.07,0.35,-0.41,-2.12,976.34
4.854,-0.52,1.23,-0.40,2.26,0.72,0.07,0.35,-0.41,-2.12,976.34
4.861,-0.52,1.23,-0.40,2.26,0.72,0.07,0.35,-0.41,-2.12,976.33
4.897,-0.62,1.52,-0.46,2.26,0.72,0.07,0.35,-0.41,-2.12,976.33
4.899,-0.62,1.52,-0.46,2.26,0.72,0.07,0.49,-0.77,-2.40,976.33
4.899,-0.62,1.52,-0.46,1.17,3.01,-0.20,0.49,-0.77,-2.40,976.33
4.9,-0.52,2.08,-0.48,1.17,3.01,-0.20,0.49,-0.77,-2.40,976.33
4.922,-0.21,2.50,-0.34,1.17,3.01,-0.20,0.49,-0.77,-2.40,976.33
4.923,-0.21,2.50,-0.34,1.17,3.01,-0.20,0.62,-1.46,-2.54,976.33
4.924,-0.21,2.50,-0.34,2.14,13.40,-1.46,0.62,-1.46,-2.54,976.33
4.925,-0.21,2.50,-0.34,2.14,13.40,-1.46,0.62,-1.46,-2.54,976.34
4.932,0.25,1.92,-0.08,2.14,13.40,-1.46,0.62,-1.46,-2.54,976.34
4.952,0.00,0.47,0.11,2.14,13.40,-1.46,0.62,-1.46,-2.54,976.34
4.954,0.00,0.47,0.11,2.14,13.40,-1.46,0.67,-1.44,-2.38,976.34
4.955,0.00,0.47,0.11,2.82,13.88,-1.66,0.67,-1.44,-2.38,976.34
4.973,-0.61,-0.51,-0.40,2.82,13.88,-1.66,0.67,-1.44,-2.38,976.34
4.985,-0.61,-0.51,-0.40,2.82,13.88,-1.66,0.67,-1.44,-2.38,976.34
5.016,-0.69,-1.36,0.21,2.82,13.88,-1.66,0.67,-1.44,-2.38,976.34
5.018,-0.69,-1.36,0.21,2.82,13.88,-1.66,0.41,0.46,-1.44,976.34
5.019,-0.69,-1.36,0.21,6.26,0.55,1.51,0.41,0.46,-1.44,976.34
5.02,0.29,-0.60,0.16,6.26,0.55,1.51,0.41,0.46,-1.44,976.34
5.032,0.16,0.61,-0.29,6.26,0.55,1.51,0.41,0.46,-1.44,976.34
5.034,0.16,0.61,-0.29,6.26,0.55,1.51,-0.66,-0.47,1.57,976.34
5.036,0.16,0.61,-0.29,6.21,-10.33,2.68,-0.66,-0.47,1.57,976.34
5.039,0.16,0.61,-0.29,6.21,-10.33,2.68,-0.66,-0.47,1.57,976.32
5.052,-0.42,0.86,-0.01,6.21,-10.33,2.68,-0.66,-0.47,1.57,976.32
5.072,-0.42,0.86,-0.01,5.28,-11.08,2.45,-0.66,-0.47,1.57,976.32
5.075,-0.82,0.60,-0.11,5.28,-11.08,2.45,-0.66,-0.47,1.57,976.32
5.077,-0.82,0.60,-0.11,5.28,-11.08,2.45,-1.19,0.44,3.17,976.32
5.1,-0.68,0.44,-0.12,5.28,-11.08,2.45,-1.19,0.44,3.17,976.32
5.102,-0.68,0.44,-0.12,5.28,-11.08,2.45,-1.19,0.44,3.17,976.32
5.123,-0.51,0.52,-0.22,5.28,-11.08,2.45,-1.19,0.44,3.17,976.32
5.125,-0.51,0.52,-0.22,5.28,-11.08,2.45,-1.36,1.15,3.61,976.32
5.126,-0.51,0.52,-0.22,-1.31,-1.35,1.25,-1.36,1.15,3.61,976.32
5.129,-0.46,0.55,-0.34,-1.31,-1.35,1.25,-1.36,1.15,3.61,976.32
5.149,-0.48,0.60,-0.32,-1.31,-1.35,1.25,-1.36,1.15,3.61,976.32
5.151,-0.48,0.60,-0.32,-1.31,-1.35,1.25,-1.30,0.71,4.23,976.32
5.151,-0.48,0.60,-0.32,-1.14,-2.89,-1.13,-1.30,0.71,4.23,976.32
5.162,-0.48,0.60,-0.32,-1.14,-2.89,-1.13,-1.30,0.71,4.23,976.33
5.17,-0.57,0.72,-0.21,-1.14,-2.89,-1.13,-1.30,0.71,4.23,976.33
5.189,-0.59,0.91,-0.28,-1.14,-2.89,-1.13,-1.30,0.71,4.23,976.33
5.192,-0.59,0.91,-0.28,-1.14,-2.89,-1.13,-1.04,1.38,3.84,976.33
5.194,-0.59,0.91,-0.28,-2.49,-3.35,-1.31,-1.04,1.38,3.84,976.33
5.209,-0.62,0.97,-0.44,-2.49,-3.35,-1.31,-1.04,1.38,3.84,976.33
5.218,-0.62,0.97,-0.44,-2.49,-3.35,-1.31,-1.04,1.38,3.84,976.34
5.229,-0.58,0.84,-0.60,-2.49,-3.35,-1.31,-1.04,1.38,3.84,976.34
5.231,-0.58,0.84,-0.60,-2.49,-3.35,-1.31,-0.74,2.01,3.11,976.34
5.231,-0.58,0.84,-0.60,-4.70,-0.53,-1.54,-0.74,2.01,3.11,976.34
5.248,-0.62,0.79,-0.74,-4.70,-0.53,-1.54,-0.74,2.01,3.11,976.34
5.268,-0.84,0.85,-0.68,-4.70,-0.53,-1.54,-0.74,2.01,3.11,976.34
5.269,-0.84,0.85,-0.68,-4.70,-0.53,-1.54,-0.31,1.75,2.20,976.34
5.27,-0.84,0.85,-0.68,-6.33,-0.98,-5.10,-0.31,1.75,2.20,976.34
5.286,-0.84,0.85,-0.68,-6.33,-0.98,-5.10,-0.31,1.75,2.20,976.35
5.289,-0.76,1.00,-0.56,-6.33,-0.98,-5.10,-0.31,1.75,2.20,976.35
5.308,-0.30,1.05,-0.45,-6.33,-0.98,-5.10,-0.31,1.75,2.20,976.35
5.309,-0.30,1.05,-0.45,-6.33,-0.98,-5.10,-0.04,0.14,1.57,976.35
5.312,-0.30,1.05,-0.45,-6.79,-0.97,-5.03,-0.04,0.14,1.57,976.35
5.327,-0.07,0.92,-0.45,-6.79,-0.97,-5.03,-0.04,0.14,1.57,976.35
5.338,-0.07,0.92,-0.45,-6.79,-0.97,-5.03,-0.04,0.14,1.57,976.37
5.348,-0.24,0.99,-0.65,-6.79,-0.97,-5.03,-0.04,0.14,1.57,976.37
5.351,-0.24,0.99,-0.65,-6.79,-0.97,-5.03,0.27,-1.76,0.98,976.37
5.353,-0.24,0.99,-0.65,-3.95,0.66,-3.03,0.27,-1.76,0.98,976.37
5.368,-0.32,1.12,-0.29,-3.95,0.66,-3.03,0.27,-1.76,0.98,976.37
5.393,-0.01,1.07,0.05,-3.95,0.66,-3.03,0.27,-1.76,0.98,976.37
5.396,-0.01,1.07,0.05,-3.95,0.66,-3.03,0.49,-2.06,-0.18,976.37
5.397,-0.01,1.07,0.05,-1.90,1.35,-1.00,0.49,-2.06,-0.18,976.37
5.398,-0.01,1.07,0.05,-1.90,1.35,-1.00,0.49,-2.06,-0.18,976.38
5.406,0.33,0.87,-0.03,-1.90,1.35,-1.00,0.49,-2.06,-0.18,976.38
5.431,-0.52,1.03,-0.74,-1.90,1.35,-1.00,0.49,-2.06,-0.18,976.38
5.433,-0.52,1.03,-0.74,-1.90,1.35,-1.00,0.74,-0.91,-1.17,976.38
5.435,-0.52,1.03,-0.74,-1.39,1.40,-0.73,0.74,-0.91,-1.17,976.38
5.447,-1.48,1.62,-0.88,-1.39,1.40,-0.73,0.74,-0.91,-1.17,976.38
5.461,-1.48,1.62,-0.88,-1.39,1.40,-0.73,0.74,-0.91,-1.17,976.37
5.466,1.50,5.30,1.43,-1.39,1.40,-0.73,0.74,-0.91,-1.17,976.37
5.468,1.50,5.30,1.43,-1.39,1.40,-0.73,0.48,2.09,-1.84,976.37
5.47,1.50,5.30,1.43,-4.45,2.56,-2.87,0.48,2.09,-1.84,976.37
5.485,2.03,2.87,-0.29,-4.45,2.56,-2.87,0.48,2.09,-1.84,976.37
5.513,0.05,-1.54,-1.27,-4.45,2.56,-2.87,0.48,2.09,-1.84,976.37
5.515,0.05,-1.54,-1.27,-4.45,2.56,-2.87,0.65,-0.16,-0.71,976.37
5.517,0.05,-1.54,-1.27,12.76,12.62,2.28,0.65,-0.16,-0.71,976.37
5.518,0.05,-1.54,-1.27,12.76,12.62,2.28,0.65,-0.16,-0.71,976.38
5.525,-0.93,-1.29,-1.05,12.76,12.62,2.28,0.65,-0.16,-0.71,976.38
5.546,-1.44,1.10,-0.40,12.76,12.62,2.28,0.65,-0.16,-0.71,976.38
5.547,-1.44,1.10,-0.40,12.76,12.62,2.28,0.92,1.17,-3.74,976.38
5.548,-1.44,1.10,-0.40,13.70,12.75,2.64,0.92,1.17,-3.74,976.38
5.565,-1.46,2.16,-0.42,13.70,12.75,2.64,0.92,1.17,-3.74,976.38
5.598,-1.46,2.16,-0.42,13.70,12.75,2.64,0.92,1.17,-3.74,976.39
5.599,-1.04,0.87,-0.21,13.70,12.75,2.64,0.92,1.17,-3.74,976.39
5.6,-1.04,0.87,-0.21,13.70,12.75,2.64,-0.13,0.27,-1.80,976.39
5.601,-1.04,0.87,-0.21,-9.75,-2.31,-3.00,-0.13,0.27,-1.80,976.39
5.604,-0.05,0.56,-0.42,-9.75,-2.31,-3.00,-0.13,0.27,-1.80,976.39
5.64,0.06,1.05,-0.44,-9.75,-2.31,-3.00,-0.13,0.27,-1.80,976.39
5.644,0.06,1.05,-0.44,-9.75,-2.31,-3.00,-0.09,-0.42,-0.08,976.39
5.646,0.06,1.05,-0.44,-0.52,-0.62,-0.52,-0.09,-0.42,-0.08,976.39
5.648,0.06,1.05,-0.44,-0.52,-0.62,-0.52,-0.09,-0.42,-0.08,976.39
5.65,-0.34,0.96,-0.26,-0.52,-0.62,-0.52,-0.09,-0.42,-0.08,976.39
5.663,-0.24,0.86,-0.22,-0.52,-0.62,-0.52,-0.09,-0.42,-0.08,976.39
5.666,-0.24,0.86,-0.22,-0.52,-0.62,-0.52,-0.04,-0.17,-0.40,976.39
5.667,-0.24,0.86,-0.22,-0.36,-0.57,-0.55,-0.04,-0.17,-0.40,976.39
5.699,0.03,0.95,-0.26,-0.36,-0.57,-0.55,-0.04,-0.17,-0.40,976.39
5.7,0.03,0.95,-0.26,-0.36,-0.57,-0.55,-0.04,-0.17,-0.40,976.36
5.702,-0.04,0.90,-0.26,-0.36,-0.57,-0.55,-0.04,-0.17,-0.40,976.36
5.703,-0.04,0.90,-0.26,-0.36,-0.57,-0.55,0.15,-0.45,-0.86,976.36
5.704,-0.04,0.90,-0.26,1.53,0.50,0.56,0.15,-0.45,-0.86,976.36
5.722,-0.17,0.84,-0.25,1.53,0.50,0.56,0.15,-0.45,-0.86,976.36
5.742,-0.26,0.96,-0.33,1.53,0.50,0.56,0.15,-0.45,-0.86,976.36
5.743,-0.26,0.96,-0.33,1.53,0.50,0.56,0.30,-0.42,-1.48,976.36
5.744,-0.26,0.96,-0.33,2.31,0.50,0.24,0.30,-0.42,-1.48,976.36
5.758,-0.26,0.96,-0.33,2.31,0.50,0.24,0.30,-0.42,-1.48,976.35
5.764,-0.24,1.30,-0.36,2.31,0.50,0.24,0.30,-0.42,-1.48,976.35
5.782,-0.12,1.34,-0.33,2.31,0.50,0.24,0.30,-0.42,-1.48,976.35
5.786,-0.12,1.34,-0.33,2.31,0.50,0.24,0.33,-0.47,-2.11,976.35
5.788,-0.12,1.34,-0.33,2.99,0.87,0.26,0.33,-0.47,-2.11,976.35
5.815,-0.44,1.30,-0.22,2.99,0.87,0.26,0.33,-0.47,-2.11,976.35
5.818,-0.44,1.30,-0.22,2.99,0.87,0.26,0.33,-0.47,-2.11,976.36
5.822,-0.44,1.30,-0.22,2.81,5.46,0.03,0.33,-0.47,-2.11,976.36
5.823,-0.65,1.26,-0.10,2.81,5.46,0.03,0.33,-0.47,-2.11,976.36
5.823,-0.65,1.26,-0.10,2.81,5.46,0.03,0.59,-1.02,-2.74,976.36
5.85,-0.73,1.25,-0.06,2.81,5.46,0.03,0.59,-1.02,-2.74,976.36
5.865,-0.42,1.86,-0.07,2.81,5.46,0.03,0.59,-1.02,-2.74,976.36
5.867,-0.42,1.86,-0.07,2.81,5.46,0.03,0.79,-2.07,-3.07,976.36
5.869,-0.42,1.86,-0.07,0.63,7.51,1.94,0.79,-2.07,-3.07,976.36
5.882,-0.42,1.86,-0.07,0.63,7.51,1.94,0.79,-2.07,-3.07,976.37
5.885,0.26,1.74,-0.22,0.63,7.51,1.94,0.79,-2.07,-3.07,976.37
5.905,0.57,1.10,-0.38,0.63,7.51,1.94,0.79,-2.07,-3.07,976.37
5.907,0.57,1.10,-0.38,1.58,8.30,1.53,0.79,-2.07,-3.07,976.37
5.908,0.57,1.10,-0.38,1.58,8.30,1.53,0.69,-2.01,-3.11,976.37
5.938,0.11,0.26,-0.56,1.58,8.30,1.53,0.69,-2.01,-3.11,976.37
5.939,0.11,0.26,-0.56,1.58,8.30,1.53,0.69,-2.01,-3.11,976.38
5.94,-0.68,-0.42,-0.78,1.58,8.30,1.53,0.69,-2.01,-3.11,976.38
5.94,-0.68,-0.42,-0.78,1.58,8.30,1.53,0.63,1.29,-3.00,976.38
5.941,-0.68,-0.42,-0.78,10.86,5.04,-0.96,0.63,1.29,-3.00,976.38
5.969,-0.71,-0.56,-0.12,10.86,5.04,-0.96,0.63,1.29,-3.00,976.38
6.005,-0.34,0.13,-0.31,10.86,5.04,-0.96,0.63,1.29,-3.00,976.38
6.007,-0.34,0.13,-0.31,10.86,5.04,-0.96,-0.43,2.41,-1.14,976.38
6.008,-0.34,0.13,-0.31,1.99,-7.42,-0.45,-0.43,2.41,-1.14,976.38
6.008,-0.34,0.13,-0.31,1.99,-7.42,-0.45,-0.43,2.41,-1.14,976.39
6.009,-0.47,0.08,-0.20,1.99,-7.42,-0.45,-0.43,2.41,-1.14,976.39
6.019,-0.95,-0.12,-0.18,1.99,-7.42,-0.45,-0.43,2.41,-1.14,976.39
6.02,-0.95,-0.12,-0.18,1.99,-7.42,-0.45,-1.13,0.44,1.84,976.39
6.021,-0.95,-0.12,-0.18,1.54,-7.98,-0.53,-1.13,0.44,1.84,976.39
6.038,-0.70,0.15,0.04,1.54,-7.98,-0.53,-1.13,0.44,1.84,976.39
6.056,-0.70,0.15,0.04,1.54,-7.98,-0.53,-1.13,0.44,1.84,976.41
6.059,-0.28,0.30,0.16,1.54,-7.98,-0.53,-1.13,0.44,1.84,976.41
6.061,-0.28,0.30,0.16,1.54,-7.98,-0.53,-1.28,-0.73,3.40,976.41
6.065,-0.28,0.30,0.16,-0.41,-5.86,1.77,-1.28,-0.73,3.40,976.41
6.099,-0.25,0.28,0.05,-0.41,-5.86,1.77,-1.28,-0.73,3.40,976.41
6.1,-0.49,0.35,0.03,-0.41,-5.86,1.77,-1.28,-0.73,3.40,976.41
6.101,-0.49,0.35,0.03,-0.41,-5.86,1.77,-1.10,-0.64,4.11,976.41
6.103,-0.49,0.35,0.03,2.12,-4.19,3.19,-1.10,-0.64,4.11,976.41
6.126,-0.49,0.35,0.03,2.12,-4.19,3.19,-1.10,-0.64,4.11,976.42
6.128,-0.77,0.47,0.08,2.12,-4.19,3.19,-1.10,-0.64,4.11,976.42
6.137,-0.98,0.56,-0.15,2.12,-4.19,3.19,-1.10,-0.64,4.11,976.42
6.138,-0.98,0.56,-0.15,2.12,-4.19,3.19,-0.83,0.39,4.28,976.42
6.139,-0.98,0.56,-0.15,0.77,-4.99,2.96,-0.83,0.39,4.28,976.42
6.158,-1.33,0.66,-0.19,0.77,-4.99,2.96,-0.83,0.39,4.28,976.42
6.178,-1.33,0.66,-0.19,0.77,-4.99,2.96,-0.83,0.39,4.28,976.43
6.181,-1.33,0.66,-0.19,-7.16,-3.05,1.03,-0.83,0.39,4.28,976.43
6.183,-0.71,0.97,-0.01,-7.16,-3.05,1.03,-0.83,0.39,4.28,976.43
6.185,-0.71,0.97,-0.01,-7.16,-3.05,1.03,-0.62,-0.59,4.11,976.43
6.213,-0.23,1.11,-0.01,-7.16,-3.05,1.03,-0.62,-0.59,4.11,976.43
6.217,-0.23,1.11,-0.01,-3.66,1.30,0.24,-0.62,-0.59,4.11,976.43
6.218,-0.69,1.07,-0.40,-3.66,1.30,0.24,-0.62,-0.59,4.11,976.43
6.219,-0.69,1.07,-0.40,-3.66,1.30,0.24,-0.43,-0.99,3.94,976.43
6.242,-0.69,1.07,-0.40,-3.66,1.30,0.24,-0.43,-0.99,3.94,976.43
6.244,-0.97,1.11,-0.61,-3.66,1.30,0.24,-0.43,-0.99,3.94,976.43
6.255,-0.92,1.07,-0.22,-3.66,1.30,0.24,-0.43,-0.99,3.94,976.43
6.257,-0.92,1.07,-0.22,-3.66,1.30,0.24,-0.19,0.21,2.46,976.43
6.259,-0.92,1.07,-0.22,-4.48,1.15,0.18,-0.19,0.21,2.46,976.43
6.276,-0.39,1.05,-0.25,-4.48,1.15,0.18,-0.19,0.21,2.46,976.43
6.299,-0.22,1.07,-0.34,-4.48,1.15,0.18,-0.19,0.21,2.46,976.43
6.3,-0.22,1.07,-0.34,-4.48,1.15,0.18,-0.35,-0.54,1.58,976.43
6.301,-0.22,1.07,-0.34,-7.00,1.32,-2.06,-0.35,-0.54,1.58,976.43
6.302,-0.22,1.07,-0.34,-7.00,1.32,-2.06,-0.35,-0.54,1.58,976.44
6.321,-0.01,1.19,-0.22,-7.00,1.32,-2.06,-0.35,-0.54,1.58,976.44
6.335,-0.35,1.20,-0.42,-7.00,1.32,-2.06,-0.35,-0.54,1.58,976.44
6.337,-0.35,1.20,-0.42,-7.00,1.32,-2.06,-0.21,-0.42,0.69,976.44
6.339,-0.35,1.20,-0.42,-1.67,2.05,-1.77,-0.21,-0.42,0.69,976.44
6.354,-0.44,1.05,-0.44,-1.67,2.05,-1.77,-0.21,-0.42,0.69,976.44
6.357,-0.44,1.05,-0.44,-1.67,2.05,-1.77,-0.21,-0.42,0.69,976.43
6.375,-0.78,1.38,-1.07,-1.67,2.05,-1.77,-0.21,-0.42,0.69,976.43
6.377,-0.78,1.38,-1.07,-1.67,2.05,-1.77,0.25,0.68,-0.90,976.43
6.378,-0.78,1.38,-1.07,-1.36,2.04,-1.64,0.25,0.68,-0.90,976.43
6.399,-0.94,1.91,-0.95,-1.36,2.04,-1.64,0.25,0.68,-0.90,976.43
6.427,0.99,1.67,-0.66,-1.36,2.04,-1.64,0.25,0.68,-0.90,976.43
6.429,0.99,1.67,-0.66,-1.36,2.04,-1.64,0.82,0.32,-1.64,976.43
6.43,0.99,1.67,-0.66,-5.82,4.92,-6.09,0.82,0.32,-1.64,976.43
6.431,0.99,1.67,-0.66,-5.82,4.92,-6.09,0.82,0.32,-1.64,976.42
6.433,2.46,2.40,1.03,-5.82,4.92,-6.09,0.82,0.32,-1.64,976.42
6.454,1.27,1.17,-0.27,-5.82,4.92,-6.09,0.82,0.32,-1.64,976.42
6.456,1.27,1.17,-0.27,-5.82,4.92,-6.09,0.59,-0.45,-0.29,976.42
6.456,1.27,1.17,-0.27,16.52,7.80,2.41,0.59,-0.45,-0.29,976.42
6.473,-0.81,-0.23,-0.99,16.52,7.80,2.41,0.59,-0.45,-0.29,976.42
6.476,-0.81,-0.23,-0.99,16.52,7.80,2.41,0.59,-0.45,-0.29,976.41
6.494,-1.72,0.11,-0.62,16.52,7.80,2.41,0.59,-0.45,-0.29,976.41
6.496,-1.72,0.11,-0.62,16.52,7.80,2.41,1.09,2.63,-4.11,976.41
6.497,-1.72,0.11,-0.62,17.46,8.05,2.94,1.09,2.63,-4.11,976.41
6.532,-2.14,1.15,-0.34,17.46,8.05,2.94,1.09,2.63,-4.11,976.41
6.535,-0.62,1.36,-0.37,17.46,8.05,2.94,1.09,2.63,-4.11,976.41
6.537,-0.62,1.36,-0.37,17.46,8.05,2.94,0.64,0.41,-3.22,976.41
6.538,-0.62,1.36,-0.37,-11.94,-5.23,-3.42,0.64,0.41,-3.22,976.41
6.539,-0.62,1.36,-0.37,-11.94,-5.23,-3.42,0.64,0.41,-3.22,976.42
6.552,0.24,0.77,-0.50,-11.94,-5.23,-3.42,0.64,0.41,-3.22,976.42
6.573,-0.33,0.67,-0.50,-11.94,-5.23,-3.42,0.64,0.41,-3.22,976.42
6.576,-0.33,0.67,-0.50,-11.94,-5.23,-3.42,0.40,-0.83,-0.55,976.42
6.578,-0.33,0.67,-0.50,1.28,0.69,-1.50,0.40,-0.83,-0.55,976.42
6.591,-1.02,0.85,-0.42,1.28,0.69,-1.50,0.40,-0.83,-0.55,976.42
6.607,-1.02,0.85,-0.42,1.28,0.69,-1.50,0.40,-0.83,-0.55,976.41
6.616,-0.67,0.97,-0.34,1.28,0.69,-1.50,0.40,-0.83,-0.55,976.41
6.619,-0.67,0.97,-0.34,1.28,0.69,-1.50,0.23,0.18,-0.96,976.41
6.621,-0.67,0.97,-0.34,1.55,0.85,-1.38,0.23,0.18,-0.96,976.41
6.631,-0.06,0.91,-0.33,1.55,0.85,-1.38,0.23,0.18,-0.96,976.41
6.65,-0.25,0.86,-0.30,1.55,0.85,-1.38,0.23,0.18,-0.96,976.41
6.652,-0.25,0.86,-0.30,-1.52,0.72,-0.46,0.23,0.18,-0.96,976.41
6.652,-0.25,0.86,-0.30,-1.52,0.72,-0.46,0.10,-0.29,-0.81,976.41
6.655,-0.25,0.86,-0.30,-1.52,0.72,-0.46,0.10,-0.29,-0.81,976.40
6.671,-0.65,0.79,-0.29,-1.52,0.72,-0.46,0.10,-0.29,-0.81,976.40
6.699,-0.59,0.86,-0.26,-1.52,0.72,-0.46,0.10,-0.29,-0.81,976.40
6.7,-0.59,0.86,-0.26,-1.52,0.72,-0.46,0.20,-0.16,-1.05,976.40
6.701,-0.59,0.86,-0.26,-0.33,0.22,0.35,0.20,-0.16,-1.05,976.40
6.735,-0.36,1.25,-0.21,-0.33,0.22,0.35,0.20,-0.16,-1.05,976.40
6.737,-0.36,1.25,-0.21,-0.33,0.22,0.35,0.20,-0.16,-1.05,976.40
6.738,-0.20,1.26,-0.38,-0.33,0.22,0.35,0.20,-0.16,-1.05,976.40
6.739,-0.20,1.26,-0.38,-0.33,0.22,0.35,0.22,-0.32,-1.25,976.40
6.74,-0.20,1.26,-0.38,0.10,0.48,0.35,0.22,-0.32,-1.25,976.40
6.751,-0.31,1.36,-0.46,0.10,0.48,0.35,0.22,-0.32,-1.25,976.40
6.769,-0.33,1.34,-0.35,0.10,0.48,0.35,0.22,-0.32,-1.25,976.40
6.77,-0.33,1.34,-0.35,0.10,0.48,0.35,0.35,-0.60,-1.75,976.40
6.772,-0.33,1.34,-0.35,2.69,5.24,-0.29,0.35,-0.60,-1.75,976.40
6.775,-0.33,1.34,-0.35,2.69,5.24,-0.29,0.35,-0.60,-1.75,976.41
6.797,-0.34,1.37,-0.24,2.69,5.24,-0.29,0.35,-0.60,-1.75,976.41
6.809,-0.30,1.81,-0.22,2.69,5.24,-0.29,0.35,-0.60,-1.75,976.41
6.81,-0.30,1.81,-0.22,2.69,5.24,-0.29,0.73,-1.20,-2.16,976.41
6.811,-0.30,1.81,-0.22,3.05,7.81,0.43,0.73,-1.20,-2.16,976.41
6.83,-0.08,2.07,-0.22,3.05,7.81,0.43,0.73,-1.20,-2.16,976.41
6.836,-0.08,2.07,-0.22,3.05,7.81,0.43,0.73,-1.20,-2.16,976.41
6.849,0.33,1.67,0.07,3.05,7.81,0.43,0.73,-1.20,-2.16,976.41
6.851,0.33,1.67,0.07,3.05,7.81,0.43,0.77,-1.63,-2.32,976.41
6.852,0.33,1.67,0.07,3.78,8.36,0.20,0.77,-1.63,-2.32,976.41
6.872,0.08,0.45,0.27,3.78,8.36,0.20,0.77,-1.63,-2.32,976.41
6.912,-0.08,-0.44,0.02,3.78,8.36,0.20,0.77,-1.63,-2.32,976.41
6.914,-0.08,-0.44,0.02,3.78,8.36,0.20,0.53,-0.95,-2.15,976.41
6.914,-0.08,-0.44,0.02,8.51,7.83,3.01,0.53,-0.95,-2.15,976.41
6.915,-0.08,-0.44,0.02,8.51,7.83,3.01,0.53,-0.95,-2.15,976.41
6.916,-0.13,-1.02,-0.08,8.51,7.83,3.01,0.53,-0.95,-2.15,976.41
6.933,-0.25,-0.20,-0.25,8.51,7.83,3.01,0.53,-0.95,-2.15,976.41
6.935,-0.25,-0.20,-0.25,8.51,7.83,3.01,-0.15,0.21,-0.74,976.41
6.935,-0.25,-0.20,-0.25,5.96,-10.92,1.60,-0.15,0.21,-0.74,976.41
6.948,-0.16,0.75,0.03,5.96,-10.92,1.60,-0.15,0.21,-0.74,976.41
6.954,-0.16,0.75,0.03,5.96,-10.92,1.60,-0.15,0.21,-0.74,976.41
6.966,-0.68,0.66,-0.10,5.96,-10.92,1.60,-0.15,0.21,-0.74,976.41
6.967,-0.68,0.66,-0.10,5.96,-10.92,1.60,-1.44,0.33,1.87,976.41
6.968,-0.68,0.66,-0.10,5.41,-11.41,1.34,-1.44,0.33,1.87,976.41
6.991,-0.93,0.09,-0.10,5.41,-11.41,1.34,-1.44,0.33,1.87,976.41
7.036,-0.40,0.20,-0.11,5.41,-11.41,1.34,-1.44,0.33,1.87,976.41
7.04,-0.40,0.20,-0.11,5.41,-11.41,1.34,-1.66,0.19,3.00,976.41
7.043,-0.40,0.20,-0.11,0.35,-1.97,1.43,-1.66,0.19,3.00,976.41
7.045,-0.40,0.20,-0.11,0.35,-1.97,1.43,-1.66,0.19,3.00,976.42
7.047,-0.40,0.45,-0.13,0.35,-1.97,1.43,-1.66,0.19,3.00,976.42
7.048,-0.40,0.45,-0.13,0.57,-4.37,0.50,-1.66,0.19,3.00,976.42
7.051,-0.55,0.37,-0.13,0.57,-4.37,0.50,-1.66,0.19,3.00,976.42
7.053,-0.55,0.37,-0.13,0.57,-4.37,0.50,-1.33,0.56,3.86,976.42
7.066,-0.67,0.31,-0.37,0.57,-4.37,0.50,-1.33,0.56,3.86,976.42
7.075,-0.67,0.31,-0.37,0.57,-4.37,0.50,-1.33,0.56,3.86,976.41
7.094,-0.69,0.46,-0.58,0.57,-4.37,0.50,-1.33,0.56,3.86,976.41
7.096,-0.69,0.46,-0.58,0.57,-4.37,0.50,-0.88,1.00,4.27,976.41
7.097,-0.69,0.46,-0.58,-0.85,-5.06,0.38,-0.88,1.00,4.27,976.41
7.115,-0.85,0.67,-0.65,-0.85,-5.06,0.38,-0.88,1.00,4.27,976.41
7.124,-1.23,0.79,-0.63,-0.85,-5.06,0.38,-0.88,1.00,4.27,976.41
7.126,-1.23,0.79,-0.63,-0.85,-5.06,0.38,-0.44,0.86,3.74,976.41
7.127,-1.23,0.79,-0.63,-4.94,-4.08,-3.64,-0.44,0.86,3.74,976.41
7.134,-1.23,0.79,-0.63,-4.94,-4.08,-3.64,-0.44,0.86,3.74,976.40
7.144,-1.49,0.85,-0.61,-4.94,-4.08,-3.64,-0.44,0.86,3.74,976.40
7.166,-1.45,0.99,-0.67,-4.94,-4.08,-3.64,-0.44,0.86,3.74,976.40
7.169,-1.45,0.99,-0.67,-4.94,-4.08,-3.64,0.02,-0.16,2.92,976.40
7.17,-1.45,0.99,-0.67,-12.16,-0.42,-4.59,0.02,-0.16,2.92,976.40
7.2,-0.97,1.21,-0.77,-12.16,-0.42,-4.59,0.02,-0.16,2.92,976.40
7.202,-0.97,1.21,-0.77,-12.16,-0.42,-4.59,0.02,-0.16,2.92,976.42
7.204,-0.97,1.21,-0.77,-12.80,-0.49,-4.39,0.02,-0.16,2.92,976.42
7.205,-0.74,1.30,-0.71,-12.80,-0.49,-4.39,0.02,-0.16,2.92,976.42
7.206,-0.74,1.30,-0.71,-12.80,-0.49,-4.39,0.53,-1.64,2.71,976.42
7.238,-0.40,1.21,-0.40,-12.80,-0.49,-4.39,0.53,-1.64,2.71,976.42
7.244,-0.10,0.98,-0.18,-12.80,-0.49,-4.39,0.53,-1.64,2.71,976.42
7.246,-0.10,0.98,-0.18,-12.80,-0.49,-4.39,0.61,-2.16,1.12,976.42
7.247,-0.10,0.98,-0.18,-6.17,3.02,-4.05,0.61,-2.16,1.12,976.42
7.255,-0.10,0.98,-0.18,-6.17,3.02,-4.05,0.61,-2.16,1.12,976.44
7.266,-0.08,0.85,-0.01,-6.17,3.02,-4.05,0.61,-2.16,1.12,976.44
7.283,-0.11,1.03,-0.60,-6.17,3.02,-4.05,0.61,-2.16,1.12,976.44
7.284,-0.11,1.03,-0.60,-6.17,3.02,-4.05,0.52,-1.26,-0.78,976.44
7.285,-0.11,1.03,-0.60,0.19,0.31,-0.31,0.52,-1.26,-0.78,976.44
7.318,-0.42,1.74,0.32,0.19,0.31,-0.31,0.52,-1.26,-0.78,976.44
7.319,-0.42,1.74,0.32,0.19,0.31,-0.31,0.52,-1.26,-0.78,976.45
7.327,0.20,1.83,-1.19,0.19,0.31,-0.31,0.52,-1.26,-0.78,976.45
7.328,0.20,1.83,-1.19,0.19,0.31,-0.31,0.60,1.41,-1.95,976.45
7.328,0.20,1.83,-1.19,0.73,0.46,-0.02,0.60,1.41,-1.95,976.45
7.349,1.54,3.56,0.31,0.73,0.46,-0.02,0.60,1.41,-1.95,976.45
7.362,1.73,2.34,0.07,0.73,0.46,-0.02,0.60,1.41,-1.95,976.45
7.364,1.73,2.34,0.07,0.73,0.46,-0.02,0.52,1.72,-0.64,976.45
7.366,1.73,2.34,0.07,5.90,14.29,0.98,0.52,1.72,-0.64,976.45
7.374,1.73,2.34,0.07,5.90,14.29,0.98,0.52,1.72,-0.64,976.46
7.39,-0.26,-0.86,-1.10,5.90,14.29,0.98,0.52,1.72,-0.64,976.46
7.419,-1.68,-1.17,-0.75,5.90,14.29,0.98,0.52,1.72,-0.64,976.46
7.421,-1.68,-1.17,-0.75,5.90,14.29,0.98,0.97,0.61,-4.17,976.46
7.421,-1.68,-1.17,-0.75,2.26,-7.40,-2.57,0.97,0.61,-4.17,976.46
7.423,-2.06,1.09,-0.17,2.26,-7.40,-2.57,0.97,0.61,-4.17,976.46
7.434,-2.06,1.09,-0.17,2.26,-7.40,-2.57,0.97,0.61,-4.17,976.47
7.442,-1.04,1.87,-0.54,2.26,-7.40,-2.57,0.97,0.61,-4.17,976.47
7.443,-1.04,1.87,-0.54,2.26,-7.40,-2.57,0.47,0.35,-3.84,976.47
7.444,-1.04,1.87,-0.54,3.39,-6.69,-2.33,0.47,0.35,-3.84,976.47
7.462,-0.39,0.52,-0.53,3.39,-6.69,-2.33,0.47,0.35,-3.84,976.47
7.487,-0.28,0.77,-0.51,3.39,-6.69,-2.33,0.47,0.35,-3.84,976.47
7.491,-0.28,0.77,-0.51,3.39,-6.69,-2.33,0.13,-0.46,-1.03,976.47
7.494,-0.28,0.77,-0.51,-6.83,3.81,-0.60,0.13,-0.46,-1.03,976.47
7.499,-0.28,0.77,-0.51,-6.83,3.81,-0.60,0.13,-0.46,-1.03,976.47
7.501,-1.10,0.73,-0.35,-6.83,3.81,-0.60,0.13,-0.46,-1.03,976.47
7.536,-0.68,0.86,-0.22,-6.83,3.81,-0.60,0.13,-0.46,-1.03,976.47
7.538,-0.68,0.86,-0.22,-6.83,3.81,-0.60,-0.02,-0.22,-1.11,976.47
7.539,-0.68,0.86,-0.22,-1.79,0.32,-0.13,-0.02,-0.22,-1.11,976.47
7.539,-0.46,0.81,-0.25,-1.79,0.32,-0.13,-0.02,-0.22,-1.11,976.47
7.568,-0.46,0.81,-0.25,-1.79,0.32,-0.13,-0.02,-0.22,-1.11,976.48
7.57,-0.73,0.78,-0.23,-1.79,0.32,-0.13,-0.02,-0.22,-1.11,976.48
7.571,-0.73,0.78,-0.23,-1.79,0.32,-0.13,0.02,-0.32,-0.89,976.48
7.571,-0.73,0.78,-0.23,-1.46,0.49,-0.18,0.02,-0.32,-0.89,976.48
7.579,-0.61,0.87,-0.20,-1.46,0.49,-0.18,0.02,-0.32,-0.89,976.48
7.607,-0.48,1.03,-0.35,-1.46,0.49,-0.18,0.02,-0.32,-0.89,976.48
7.608,-0.48,1.03,-0.35,-1.46,0.49,-0.18,0.30,-0.39,-0.77,976.48
7.609,-0.48,1.03,-0.35,-0.35,1.00,1.11,0.30,-0.39,-0.77,976.48
7.641,-0.48,1.03,-0.35,-0.35,1.00,1.11,0.30,-0.39,-0.77,976.48
7.644,-0.26,1.01,-0.42,-0.35,1.00,1.11,0.30,-0.39,-0.77,976.48
7.646,-0.51,0.76,-0.37,-0.35,1.00,1.11,0.30,-0.39,-0.77,976.48
7.648,-0.51,0.76,-0.37,-0.35,1.00,1.11,0.45,-0.49,-1.03,976.48
7.649,-0.51,0.76,-0.37,1.72,2.40,-0.34,0.45,-0.49,-1.03,976.48
7.658,-0.59,0.61,-0.35,1.72,2.40,-0.34,0.45,-0.49,-1.03,976.48
7.675,-0.59,0.61,-0.35,1.72,2.40,-0.34,0.45,-0.49,-1.03,976.47
7.678,-0.61,0.50,-0.43,1.72,2.40,-0.34,0.45,-0.49,-1.03,976.47
7.68,-0.61,0.50,-0.43,1.72,2.40,-0.34,0.47,-0.54,-1.43,976.47
7.682,-0.61,0.50,-0.43,2.13,2.76,-0.34,0.47,-0.54,-1.43,976.47
7.702,-0.73,0.63,-0.44,2.13,2.76,-0.34,0.47,-0.54,-1.43,976.47
7.731,-0.52,0.89,-0.42,2.13,2.76,-0.34,0.47,-0.54,-1.43,976.47
7.733,-0.52,0.89,-0.42,2.13,2.76,-0.34,0.42,-0.73,-1.53,976.47
7.734,-0.52,0.89,-0.42,0.36,-0.26,-0.70,0.42,-0.73,-1.53,976.47
7.735,-0.52,0.89,-0.42,0.36,-0.26,-0.70,0.42,-0.73,-1.53,976.47
7.737,-0.46,1.07,-0.45,0.36,-0.26,-0.70,0.42,-0.73,-1.53,976.47
7.757,-0.59,1.21,-0.46,0.36,-0.26,-0.70,0.42,-0.73,-1.53,976.47
7.76,-0.59,1.21,-0.46,0.36,-0.26,-0.70,0.42,-0.87,-1.73,976.47
7.764,-0.59,1.21,-0.46,2.05,4.86,-1.19,0.42,-0.87,-1.73,976.47
7.778,-0.53,1.59,-0.47,2.05,4.86,-1.19,0.42,-0.87,-1.73,976.47
7.805,-0.53,1.59,-0.47,2.05,4.86,-1.19,0.42,-0.87,-1.73,976.47
7.809,-0.33,2.06,-0.74,2.05,4.86,-1.19,0.42,-0.87,-1.73,976.47
7.81,-0.33,2.06,-0.74,2.05,4.86,-1.19,0.63,-1.29,-2.18,976.47
7.812,-0.33,2.06,-0.74,2.60,5.49,-1.42,0.63,-1.29,-2.18,976.47
7.842,-0.06,2.42,-0.62,2.60,5.49,-1.42,0.63,-1.29,-2.18,976.47
7.844,0.11,1.71,-0.18,2.60,5.49,-1.42,0.63,-1.29,-2.18,976.47
7.845,0.11,1.71,-0.18,2.60,5.49,-1.42,0.46,-1.56,-2.25,976.47
7.848,0.11,1.71,-0.18,5.23,15.45,-3.41,0.46,-1.56,-2.25,976.47
7.856,0.11,1.71,-0.18,5.23,15.45,-3.41,0.46,-1.56,-2.25,976.47
7.859,-0.02,0.60,0.21,5.23,15.45,-3.41,0.46,-1.56,-2.25,976.47
7.877,-0.02,0.60,0.21,7.98,3.60,0.85,0.46,-1.56,-2.25,976.47
7.879,-0.22,-0.01,-0.46,7.98,3.60,0.85,0.46,-1.56,-2.25,976.47
7.881,-0.22,-0.01,-0.46,7.98,3.60,0.85,-0.22,-0.85,-1.52,976.47
7.9,-0.63,0.01,-0.50,7.98,3.60,0.85,-0.22,-0.85,-1.52,976.47
7.913,-0.63,0.01,-0.50,7.98,3.60,0.85,-0.22,-0.85,-1.52,976.47
7.927,0.05,1.09,-0.28,7.98,3.60,0.85,-0.22,-0.85,-1.52,976.47
7.929,0.05,1.09,-0.28,7.98,3.60,0.85,-0.46,0.40,0.30,976.47
7.929,0.05,1.09,-0.28,7.77,3.41,0.90,-0.46,0.40,0.30,976.47
7.935,-0.07,1.13,-0.04,7.77,3.41,0.90,-0.46,0.40,0.30,976.47
7.954,-1.25,0.46,-0.18,7.77,3.41,0.90,-0.46,0.40,0.30,976.47
7.956,-1.25,0.46,-0.18,7.77,3.41,0.90,-0.65,0.41,2.58,976.47
7.957,-1.25,0.46,-0.18,5.46,2.22,-0.38,-0.65,0.41,2.58,976.47
7.974,-1.25,0.46,-0.18,5.46,2.22,-0.38,-0.65,0.41,2.58,976.47
7.977,-0.57,0.84,0.04,5.46,2.22,-0.38,-0.65,0.41,2.58,976.47
8.0,-0.12,1.02,-0.07,5.46,2.22,-0.38,-0.65,0.41,2.58,976.47
8.002,-0.12,1.02,-0.07,5.46,2.22,-0.38,-0.57,0.83,3.70,976.47
8.003,-0.12,1.02,-0.07,0.38,1.41,1.71,-0.57,0.83,3.70,976.47
8.032,-0.33,0.85,-0.16,0.38,1.41,1.71,-0.57,0.83,3.70,976.47
8.034,-0.33,0.85,-0.16,0.38,1.41,1.71,-0.57,0.83,3.70,976.46
8.035,-0.33,0.93,-0.16,0.38,1.41,1.71,-0.57,0.83,3.70,976.46
8.036,-0.33,0.93,-0.16,0.38,1.41,1.71,-0.61,1.51,4.34,976.46
8.037,-0.33,0.93,-0.16,-0.90,0.31,1.87,-0.61,1.51,4.34,976.46
8.053,-0.38,0.98,-0.26,-0.90,0.31,1.87,-0.61,1.51,4.34,976.46
8.074,-0.47,0.99,-0.34,-0.90,0.31,1.87,-0.61,1.51,4.34,976.46
8.078,-0.47,0.99,-0.34,-0.90,0.31,1.87,-0.78,2.22,4.60,976.46
8.08,-0.47,0.99,-0.34,0.38,0.80,0.84,-0.78,2.22,4.60,976.46
8.101,-0.47,0.99,-0.34,0.38,0.80,0.84,-0.78,2.22,4.60,976.45
8.103,-0.50,1.02,-0.38,0.38,0.80,0.84,-0.78,2.22,4.60,976.45
8.113,-0.42,1.07,-0.37,0.38,0.80,0.84,-0.78,2.22,4.60,976.45
8.113,-0.42,1.07,-0.37,0.38,0.80,0.84,-1.05,1.75,5.08,976.45
8.114,-0.42,1.07,-0.37,-2.63,1.16,-1.03,-1.05,1.75,5.08,976.45
8.135,-0.32,1.15,-0.33,-2.63,1.16,-1.03,-1.05,1.75,5.08,976.45
8.152,-0.33,1.24,-0.36,-2.63,1.16,-1.03,-1.05,1.75,5.08,976.45
8.153,-0.33,1.24,-0.36,-2.63,1.16,-1.03,-1.19,0.92,5.53,976.45
8.154,-0.33,1.24,-0.36,-4.63,0.85,-1.40,-1.19,0.92,5.53,976.45
8.155,-0.33,1.24,-0.36,-4.63,0.85,-1.40,-1.19,0.92,5.53,976.45
8.172,-0.45,1.36,-0.43,-4.63,0.85,-1.40,-1.19,0.92,5.53,976.45
8.193,-0.61,1.36,-0.53,-4.63,0.85,-1.40,-1.19,0.92,5.53,976.45
8.196,-0.61,1.36,-0.53,-4.63,0.85,-1.40,-1.11,1.23,5.23,976.45
8.197,-0.61,1.36,-0.53,-5.62,3.12,-1.90,-1.11,1.23,5.23,976.45
8.221,-0.68,1.40,-0.72,-5.62,3.12,-1.90,-1.11,1.23,5.23,976.45
8.222,-0.68,1.40,-0.72,-5.62,3.12,-1.90,-1.11,1.23,5.23,976.46
8.232,-0.71,1.35,-0.81,-5.62,3.12,-1.90,-1.11,1.23,5.23,976.46
8.233,-0.71,1.35,-0.81,-5.62,3.12,-1.90,-0.74,1.10,3.89,976.46
8.233,-0.71,1.35,-0.81,-9.84,4.60,-5.27,-0.74,1.10,3.89,976.46
8.254,-1.03,1.13,-0.67,-9.84,4.60,-5.27,-0.74,1.10,3.89,976.46
8.272,-1.41,0.82,-0.55,-9.84,4.60,-5.27,-0.74,1.10,3.89,976.46
8.273,-1.41,0.82,-0.55,-9.84,4.60,-5.27,-0.12,-0.18,1.35,976.46
8.274,-1.41,0.82,-0.55,-10.13,4.71,-5.19,-0.12,-0.18,1.35,976.46
8.275,-1.41,0.82,-0.55,-10.13,4.71,-5.19,-0.12,-0.18,1.35,976.46
8.292,-1.51,0.72,-0.64,-10.13,4.71,-5.19,-0.12,-0.18,1.35,976.46
8.319,-1.06,0.79,-0.65,-10.13,4.71,-5.19,-0.12,-0.18,1.35,976.46
8.321,-1.06,0.79,-0.65,-10.13,4.71,-5.19,0.28,-0.37,-1.16,976.46
8.322,-1.06,0.79,-0.65,-15.78,-0.13,-4.30,0.28,-0.37,-1.16,976.46
8.33,-0.75,1.24,-1.31,-15.78,-0.13,-4.30,0.28,-0.37,-1.16,976.46
8.353,-0.75,1.24,-1.31,-15.78,-0.13,-4.30,0.28,-0.37,-1.16,976.47
8.356,1.01,2.11,1.10,-15.78,-0.13,-4.30,0.28,-0.37,-1.16,976.47
8.357,1.01,2.11,1.10,-15.78,-0.13,-4.30,0.24,-0.83,-0.84,976.47
8.358,1.01,2.11,1.10,-5.05,4.52,-0.87,0.24,-0.83,-0.84,976.47
8.37,2.21,2.55,-0.17,-5.05,4.52,-0.87,0.24,-0.83,-0.84,976.47
8.389,-0.14,1.12,-0.80,-5.05,4.52,-0.87,0.24,-0.83,-0.84,976.47
8.39,-0.14,1.12,-0.80,-5.05,4.52,-0.87,0.46,-1.24,0.35,976.47
8.391,-0.14,1.12,-0.80,-4.99,4.51,-0.58,0.46,-1.24,0.35,976.47
8.392,-0.14,1.12,-0.80,-4.99,4.51,-0.58,0.46,-1.24,0.35,976.47
8.415,-0.77,0.03,-0.62,-4.99,4.51,-0.58,0.46,-1.24,0.35,976.47
8.429,-0.78,0.47,-0.80,-4.99,4.51,-0.58,0.46,-1.24,0.35,976.47
8.431,-0.78,0.47,-0.80,-4.99,4.51,-0.58,1.04,0.49,-3.68,976.47
8.432,-0.78,0.47,-0.80,3.09,2.89,-2.56,1.04,0.49,-3.68,976.47
8.451,-0.96,1.45,-0.04,3.09,2.89,-2.56,1.04,0.49,-3.68,976.47
8.452,-0.96,1.45,-0.04,3.09,2.89,-2.56,1.04,0.49,-3.68,976.47
8.468,-0.25,1.16,-0.56,3.09,2.89,-2.56,1.04,0.49,-3.68,976.47
8.47,-0.25,1.16,-0.56,3.09,2.89,-2.56,0.34,0.65,-2.16,976.47
8.471,-0.25,1.16,-0.56,-6.82,0.79,-1.79,0.34,0.65,-2.16,976.47
8.488,0.01,0.73,-0.23,-6.82,0.79,-1.79,0.34,0.65,-2.16,976.47
8.523,0.01,0.73,-0.23,-6.29,0.81,-1.65,0.34,0.65,-2.16,976.47
8.526,-0.25,0.95,-0.36,-6.29,0.81,-1.65,0.34,0.65,-2.16,976.47
8.527,-0.25,0.95,-0.36,-6.29,0.81,-1.65,0.29,-0.69,-0.94,976.47
8.528,-0.25,0.95,-0.36,-6.29,0.81,-1.65,0.29,-0.69,-0.94,976.47
8.529,-0.26,1.03,-0.41,-6.29,0.81,-1.65,0.29,-0.69,-0.94,976.47
8.558,-0.05,0.93,-0.34,-6.29,0.81,-1.65,0.29,-0.69,-0.94,976.47
8.559,-0.05,0.93,-0.34,-6.29,0.81,-1.65,0.23,-0.72,-0.77,976.47
8.56,-0.05,0.93,-0.34,-1.04,-0.36,-0.29,0.23,-0.72,-0.77,976.47
8.567,0.06,0.99,-0.25,-1.04,-0.36,-0.29,0.23,-0.72,-0.77,976.47
8.572,0.06,0.99,-0.25,-1.04,-0.36,-0.29,0.23,-0.72,-0.77,976.47
8.587,0.06,0.99,-0.25,0.53,0.33,0.13,0.23,-0.72,-0.77,976.47
8.588,-0.09,0.99,-0.29,0.53,0.33,0.13,0.23,-0.72,-0.77,976.47
8.589,-0.09,0.99,-0.29,0.53,0.33,0.13,0.09,-0.02,-0.61,976.47
8.617,-0.14,0.95,-0.32,0.53,0.33,0.13,0.09,-0.02,-0.61,976.47
8.627,0.03,0.95,-0.32,0.53,0.33,0.13,0.09,-0.02,-0.61,976.47
8.629,0.03,0.95,-0.32,0.53,0.33,0.13,0.15,0.15,-0.67,976.47
8.631,0.03,0.95,-0.32,0.74,0.37,0.18,0.15,0.15,-0.67,976.47
8.648,0.03,0.95,-0.32,0.74,0.37,0.18,0.15,0.15,-0.67,976.49
8.649,0.12,0.96,-0.30,0.74,0.37,0.18,0.15,0.15,-0.67,976.49
8.668,0.21,1.01,-0.25,0.74,0.37,0.18,0.15,0.15,-0.67,976.49
8.671,0.21,1.01,-0.25,0.74,0.37,0.18,0.21,-0.38,-0.78,976.49
8.673,0.21,1.01,-0.25,1.37,0.26,0.05,0.21,-0.38,-0.78,976.49
8.686,0.36,0.95,-0.09,1.37,0.26,0.05,0.21,-0.38,-0.78,976.49
8.692,0.36,0.95,-0.09,1.37,0.26,0.05,0.21,-0.38,-0.78,976.50
8.727,0.01,0.80,-0.14,1.37,0.26,0.05,0.21,-0.38,-0.78,976.50
8.73,0.01,0.80,-0.14,1.37,0.26,0.05,0.37,-0.53,-1.31,976.50
8.734,0.01,0.80,-0.14,3.70,0.05,1.63,0.37,-0.53,-1.31,976.50
8.736,-0.20,0.83,-0.40,3.70,0.05,1.63,0.37,-0.53,-1.31,976.50
8.76,0.08,0.95,-0.51,3.70,0.05,1.63,0.37,-0.53,-1.31,976.50
8.764,0.08,0.95,-0.51,3.70,0.05,1.63,0.62,-0.27,-2.00,976.50
8.767,0.08,0.95,-0.51,4.36,0.30,1.79,0.62,-0.27,-2.00,976.50
8.768,0.08,0.95,-0.51,4.36,0.30,1.79,0.62,-0.27,-2.00,976.51
8.769,0.12,0.92,-0.45,4.36,0.30,1.79,0.62,-0.27,-2.00,976.51
8.79,-0.19,0.65,-0.38,4.36,0.30,1.79,0.62,-0.27,-2.00,976.51
8.792,-0.19,0.65,-0.38,4.36,0.30,1.79,0.63,-0.68,-2.47,976.51
8.792,-0.19,0.65,-0.38,3.30,0.49,-0.93,0.63,-0.68,-2.47,976.51
8.819,-0.77,0.72,-0.36,3.30,0.49,-0.93,0.63,-0.68,-2.47,976.51
8.82,-0.77,0.72,-0.36,3.30,0.49,-0.93,0.63,-0.68,-2.47,976.51
8.823,-0.75,0.92,-0.49,3.30,0.49,-0.93,0.63,-0.68,-2.47,976.51
8.824,-0.75,0.92,-0.49,3.30,0.49,-0.93,0.62,-0.46,-2.81,976.51
8.824,-0.75,0.92,-0.49,-1.26,-0.35,-0.36,0.62,-0.46,-2.81,976.51
8.843,-0.39,1.53,-0.40,-1.26,-0.35,-0.36,0.62,-0.46,-2.81,976.51
8.864,-0.07,1.77,-0.31,-1.26,-0.35,-0.36,0.62,-0.46,-2.81,976.51
8.867,-0.07,1.77,-0.31,-1.26,-0.35,-0.36,0.53,-0.97,-2.69,976.51
8.869,-0.07,1.77,-0.31,-0.31,0.24,-0.38,0.53,-0.97,-2.69,976.51
8.875,-0.07,1.77,-0.31,-0.31,0.24,-0.38,0.53,-0.97,-2.69,976.50
8.888,-0.46,1.52,-0.30,-0.31,0.24,-0.38,0.53,-0.97,-2.69,976.50
8.906,-0.64,2.08,-0.23,-0.31,0.24,-0.38,0.53,-0.97,-2.69,976.50
8.909,-0.64,2.08,-0.23,-0.31,0.24,-0.38,0.60,-1.19,-3.19,976.50
8.911,-0.64,2.08,-0.23,3.22,9.15,0.18,0.60,-1.19,-3.19,976.50
8.939,-0.08,2.25,-0.16,3.22,9.15,0.18,0.60,-1.19,-3.19,976.50
8.941,-0.08,2.25,-0.16,3.22,9.15,0.18,0.60,-1.19,-3.19,976.51
8.944,0.38,1.26,-0.41,3.22,9.15,0.18,0.60,-1.19,-3.19,976.51
8.945,0.38,1.26,-0.41,3.22,9.15,0.18,0.62,-1.50,-3.51,976.51
8.945,0.38,1.26,-0.41,6.06,12.48,0.61,0.62,-1.50,-3.51,976.51
8.964,0.18,0.33,-0.59,6.06,12.48,0.61,0.62,-1.50,-3.51,976.51
8.981,-0.59,-0.51,-0.61,6.06,12.48,0.61,0.62,-1.50,-3.51,976.51
8.982,-0.59,-0.51,-0.61,6.06,12.48,0.61,0.56,0.08,-2.88,976.51
8.983,-0.59,-0.51,-0.61,6.54,13.18,0.74,0.56,0.08,-2.88,976.51
8.992,-0.59,-0.51,-0.61,6.54,13.18,0.74,0.56,0.08,-2.88,976.50
9.013,-0.56,-1.02,0.56,6.54,13.18,0.74,0.56,0.08,-2.88,976.50
9.021,0.16,-0.12,0.07,6.54,13.18,0.74,0.56,0.08,-2.88,976.50
9.022,0.16,-0.12,0.07,6.54,13.18,0.74,-0.58,0.70,-0.33,976.50
9.023,0.16,-0.12,0.07,4.37,-8.83,1.37,-0.58,0.70,-0.33,976.50
9.041,0.08,0.50,0.16,4.37,-8.83,1.37,-0.58,0.70,-0.33,976.50
9.05,0.08,0.50,0.16,4.37,-8.83,1.37,-0.58,0.70,-0.33,976.49
9.061,-0.40,0.23,0.08,4.37,-8.83,1.37,-0.58,0.70,-0.33,976.49
9.062,-0.40,0.23,0.08,4.37,-8.83,1.37,-1.43,-1.02,2.90,976.49
9.063,-0.40,0.23,0.08,6.43,-3.88,3.81,-1.43,-1.02,2.90,976.49
9.081,-0.55,0.05,-0.14,6.43,-3.88,3.81,-1.43,-1.02,2.90,976.49
9.102,-0.24,0.38,-0.05,6.43,-3.88,3.81,-1.43,-1.02,2.90,976.49
9.109,-0.24,0.38,-0.05,5.31,-4.93,3.50,-1.43,-1.02,2.90,976.49
9.111,-0.24,0.38,-0.05,5.31,-4.93,3.50,-1.45,0.47,3.87,976.49
9.113,-0.24,0.38,-0.05,5.31,-4.93,3.50,-1.45,0.47,3.87,976.47
9.136,-0.44,0.52,-0.26,5.31,-4.93,3.50,-1.45,0.47,3.87,976.47
9.14,-0.78,0.47,-0.30,5.31,-4.93,3.50,-1.45,0.47,3.87,976.47
9.143,-0.78,0.47,-0.30,5.31,-4.93,3.50,-1.41,0.86,4.39,976.47
9.145,-0.78,0.47,-0.30,0.43,-4.77,0.77,-1.41,0.86,4.39,976.47
9.16,-0.58,0.57,-0.15,0.43,-4.77,0.77,-1.41,0.86,4.39,976.47
9.172,-0.58,0.57,-0.15,0.43,-4.77,0.77,-1.41,0.86,4.39,976.48
9.18,-0.50,0.78,-0.30,0.43,-4.77,0.77,-1.41,0.86,4.39,976.48
9.183,-0.50,0.78,-0.30,0.43,-4.77,0.77,-1.13,0.67,4.65,976.48
9.184,-0.50,0.78,-0.30,-3.13,-2.61,-0.47,-1.13,0.67,4.65,976.48
9.2,-0.44,1.03,-0.64,-3.13,-2.61,-0.47,-1.13,0.67,4.65,976.48
9.231,-0.60,1.13,-0.89,-3.13,-2.61,-0.47,-1.13,0.67,4.65,976.48
9.235,-0.60,1.13,-0.89,-3.13,-2.61,-0.47,-0.54,1.03,3.91,976.48
9.237,-0.60,1.13,-0.89,-4.49,-2.94,-0.56,-0.54,1.03,3.91,976.48
9.237,-0.60,1.13,-0.89,-4.49,-2.94,-0.56,-0.54,1.03,3.91,976.50
9.261,-1.23,1.04,-0.71,-4.49,-2.94,-0.56,-0.54,1.03,3.91,976.50
9.262,-1.45,0.99,-0.49,-4.49,-2.94,-0.56,-0.54,1.03,3.91,976.50
9.263,-1.45,0.99,-0.49,-4.49,-2.94,-0.56,-0.36,1.37,2.10,976.50
9.263,-1.45,0.99,-0.49,-6.59,1.39,-5.42,-0.36,1.37,2.10,976.50
9.278,-0.75,1.04,-0.53,-6.59,1.39,-5.42,-0.36,1.37,2.10,976.50
9.29,-0.75,1.04,-0.53,-6.59,1.39,-5.42,-0.36,1.37,2.10,976.53
9.298,-0.45,1.11,-0.67,-6.59,1.39,-5.42,-0.36,1.37,2.10,976.53
9.299,-0.45,1.11,-0.67,-6.59,1.39,-5.42,-0.16,-0.06,2.01,976.53
9.299,-0.45,1.11,-0.67,-8.41,1.13,-3.61,-0.16,-0.06,2.01,976.53
9.319,-0.57,1.22,-0.52,-8.41,1.13,-3.61,-0.16,-0.06,2.01,976.53
9.338,-0.39,1.11,-0.35,-8.41,1.13,-3.61,-0.16,-0.06,2.01,976.53
9.34,-0.39,1.11,-0.35,-8.41,1.13,-3.61,0.33,-1.33,0.96,976.53
9.341,-0.39,1.11,-0.35,-8.51,1.13,-3.43,0.33,-1.33,0.96,976.53
9.349,-0.39,1.11,-0.35,-8.51,1.13,-3.43,0.33,-1.33,0.96,976.54
9.356,-0.09,1.02,-0.28,-8.51,1.13,-3.43,0.33,-1.33,0.96,976.54
9.377,-0.23,1.17,-0.74,-8.51,1.13,-3.43,0.33,-1.33,0.96,976.54
9.38,-0.23,1.17,-0.74,-8.51,1.13,-3.43,0.50,-1.36,-0.59,976.54
9.382,-0.23,1.17,-0.74,-2.91,1.82,-1.48,0.50,-1.36,-0.59,976.54
9.396,-0.69,1.75,-0.16,-2.91,1.82,-1.48,0.50,-1.36,-0.59,976.54
9.414,-0.69,1.75,-0.16,-2.91,1.82,-1.48,0.50,-1.36,-0.59,976.55
9.447,-0.69,1.75,-0.16,0.09,4.65,-0.71,0.50,-1.36,-0.59,976.55
9.449,0.58,1.26,-0.11,0.09,4.65,-0.71,0.50,-1.36,-0.59,976.55
9.449,0.58,1.26,-0.11,0.09,4.65,-0.71,0.74,0.83,-2.13,976.55
9.45,1.18,1.66,-0.82,0.09,4.65,-0.71,0.74,0.83,-2.13,976.55
9.456,0.61,3.78,0.53,0.09,4.65,-0.71,0.74,0.83,-2.13,976.55
9.457,0.61,3.78,0.53,0.09,4.65,-0.71,0.70,2.33,-1.01,976.55
9.459,0.61,3.78,0.53,0.19,4.70,-0.34,0.70,2.33,-1.01,976.55
9.469,0.61,3.78,0.53,0.19,4.70,-0.34,0.70,2.33,-1.01,976.55
9.475,0.06,1.14,-0.43,0.19,4.70,-0.34,0.70,2.33,-1.01,976.55
9.495,-1.10,-0.97,-0.97,0.19,4.70,-0.34,0.70,2.33,-1.01,976.55
9.497,-1.10,-0.97,-0.97,0.19,4.70,-0.34,0.81,0.93,-2.83,976.55
9.499,-1.10,-0.97,-0.97,8.08,12.58,0.95,0.81,0.93,-2.83,976.55
9.519,-1.42,0.12,-0.39,8.08,12.58,0.95,0.81,0.93,-2.83,976.55
9.53,-1.42,0.12,-0.39,8.08,12.58,0.95,0.81,0.93,-2.83,976.57
9.55,-0.66,1.54,-0.45,8.08,12.58,0.95,0.81,0.93,-2.83,976.57
9.552,-0.66,1.54,-0.45,8.08,12.58,0.95,0.84,-0.04,-2.72,976.57
9.553,-0.66,1.54,-0.45,-7.28,-6.18,-2.31,0.84,-0.04,-2.72,976.57
9.554,-0.33,1.28,-0.41,-7.28,-6.18,-2.31,0.84,-0.04,-2.72,976.57
9.575,-0.02,0.71,-0.44,-7.28,-6.18,-2.31,0.84,-0.04,-2.72,976.57
9.577,-0.02,0.71,-0.44,-7.28,-6.18,-2.31,0.39,-0.47,-0.81,976.57
9.578,-0.02,0.71,-0.44,-6.83,-5.91,-2.20,0.39,-0.47,-0.81,976.57
9.59,-0.02,0.71,-0.44,-6.83,-5.91,-2.20,0.39,-0.47,-0.81,976.56
9.594,-0.30,0.81,-0.50,-6.83,-5.91,-2.20,0.39,-0.47,-0.81,976.56
9.615,-0.44,0.97,-0.40,-6.83,-5.91,-2.20,0.39,-0.47,-0.81,976.56
9.618,-0.44,0.97,-0.40,-6.83,-5.91,-2.20,0.33,-0.31,-1.14,976.56
9.618,-0.44,0.97,-0.40,1.83,1.20,-0.64,0.33,-0.31,-1.14,976.56
9.633,-0.54,0.88,-0.35,1.83,1.20,-0.64,0.33,-0.31,-1.14,976.56
9.648,-0.54,0.88,-0.35,1.83,1.20,-0.64,0.33,-0.31,-1.14,976.54
9.653,-0.29,1.14,-0.30,1.83,1.20,-0.64,0.33,-0.31,-1.14,976.54
9.653,-0.29,1.14,-0.30,1.83,1.20,-0.64,0.43,-0.50,-1.28,976.54
9.654,-0.29,1.14,-0.30,0.28,2.06,0.36,0.43,-0.50,-1.28,976.54
9.672,-0.15,1.60,-0.28,0.28,2.06,0.36,0.43,-0.50,-1.28,976.54
9.692,-0.08,2.05,-0.38,0.28,2.06,0.36,0.43,-0.50,-1.28,976.54
9.693,-0.08,2.05,-0.38,0.28,2.06,0.36,0.53,-0.85,-1.40,976.54
9.694,-0.08,2.05,-0.38,0.81,2.36,0.36,0.53,-0.85,-1.40,976.54
9.709,-0.08,2.05,-0.38,0.81,2.36,0.36,0.53,-0.85,-1.40,976.51
9.712,0.07,2.14,-0.44,0.81,2.36,0.36,0.53,-0.85,-1.40,976.51
9.738,0.04,2.16,-0.35,0.81,2.36,0.36,0.53,-0.85,-1.40,976.51
9.74,0.04,2.16,-0.35,0.81,2.36,0.36,0.72,-1.17,-2.10,976.51
9.741,0.04,2.16,-0.35,5.10,11.85,0.18,0.72,-1.17,-2.10,976.51
9.753,0.37,1.98,-0.28,5.10,11.85,0.18,0.72,-1.17,-2.10,976.51
9.77,0.37,1.98,-0.28,5.10,11.85,0.18,0.72,-1.17,-2.10,976.53
9.771,0.56,1.50,-0.05,5.10,11.85,0.18,0.72,-1.17,-2.10,976.53
9.772,0.56,1.50,-0.05,5.10,11.85,0.18,0.90,-2.05,-2.31,976.53
9.773,0.56,1.50,-0.05,9.52,11.83,1.27,0.90,-2.05,-2.31,976.53
9.793,0.08,0.03,0.56,9.52,11.83,1.27,0.90,-2.05,-2.31,976.53
9.826,-0.07,-1.19,0.51,9.52,11.83,1.27,0.90,-2.05,-2.31,976.53
9.83,-0.07,-1.19,0.51,9.52,11.83,1.27,0.84,-1.77,-1.89,976.53
9.832,-0.07,-1.19,0.51,10.06,12.24,0.99,0.84,-1.77,-1.89,976.53
9.834,-0.07,-1.19,0.51,10.06,12.24,0.99,0.84,-1.77,-1.89,976.56
9.852,0.31,-1.08,0.41,10.06,12.24,0.99,0.84,-1.77,-1.89,976.56
9.853,0.57,0.20,0.40,10.06,12.24,0.99,0.84,-1.77,-1.89,976.56
9.854,0.57,0.20,0.40,10.06,12.24,0.99,-0.12,-2.04,0.17,976.56
9.855,0.57,0.20,0.40,7.98,-13.34,7.30,-0.12,-2.04,0.17,976.56
9.87,0.17,0.46,0.19,7.98,-13.34,7.30,-0.12,-2.04,0.17,976.56
9.892,0.17,0.46,0.19,7.98,-13.34,7.30,-0.12,-2.04,0.17,976.57
9.897,-0.41,0.14,-0.17,7.98,-13.34,7.30,-0.12,-2.04,0.17,976.57
9.899,-0.41,0.14,-0.17,7.98,-13.34,7.30,-1.13,-0.38,2.79,976.57
9.901,-0.41,0.14,-0.17,7.26,-4.17,3.41,-1.13,-0.38,2.79,976.57
9.921,-0.60,0.05,-0.32,7.26,-4.17,3.41,-1.13,-0.38,2.79,976.57
9.93,-0.95,0.26,-0.32,7.26,-4.17,3.41,-1.13,-0.38,2.79,976.57
9.931,-0.95,0.26,-0.32,7.26,-4.17,3.41,-1.11,1.48,3.58,976.57
9.932,-0.95,0.26,-0.32,6.01,-4.97,3.36,-1.11,1.48,3.58,976.57
9.963,-0.95,0.26,-0.32,6.01,-4.97,3.36,-1.11,1.48,3.58,976.56
9.965,-1.17,0.59,-0.26,6.01,-4.97,3.36,-1.11,1.48,3.58,976.56
9.972,-1.11,0.88,-0.20,6.01,-4.97,3.36,-1.11,1.48,3.58,976.56
9.973,-1.11,0.88,-0.20,6.01,-4.97,3.36,-0.97,0.18,3.88,976.56
9.974,-1.11,0.88,-0.20,-5.09,-5.30,-1.20,-0.97,0.18,3.88,976.56
9.989,-1.05,1.04,-0.32,-5.09,-5.30,-1.20,-0.97,0.18,3.88,976.56
10.009,-1.05,1.04,-0.32,-5.09,-5.30,-1.20,-0.97,0.18,3.88,976.55
10.01,-0.93,0.98,-0.40,-5.09,-5.30,-1.20,-0.97,0.18,3.88,976.55
10.011,-0.93,0.98,-0.40,-5.09,-5.30,-1.20,-0.77,0.13,3.83,976.55
10.012,-0.93,0.98,-0.40,-7.50,0.72,-1.47,-0.77,0.13,3.83,976.55
10.049,-0.69,0.92,-0.58,-7.50,0.72,-1.47,-0.77,0.13,3.83,976.55
10.05,-0.95,1.08,-0.73,-7.50,0.72,-1.47,-0.77,0.13,3.83,976.55
10.051,-0.95,1.08,-0.73,-7.50,0.72,-1.47,-0.35,1.80,3.07,976.55
10.052,-0.95,1.08,-0.73,-8.54,0.44,-1.43,-0.35,1.80,3.07,976.55
10.068,-0.95,1.08,-0.73,-8.54,0.44,-1.43,-0.35,1.80,3.07,976.57
10.07,-0.98,1.30,-0.54,-8.54,0.44,-1.43,-0.35,1.80,3.07,976.57
10.089,-0.84,1.25,-0.74,-8.54,0.44,-1.43,-0.35,1.80,3.07,976.57
10.092,-0.84,1.25,-0.74,-8.54,0.44,-1.43,-0.17,1.04,2.35,976.57
10.094,-0.84,1.25,-0.74,-7.78,1.63,-4.42,-0.17,1.04,2.35,976.57
10.109,-0.75,1.21,-0.59,-7.78,1.63,-4.42,-0.17,1.04,2.35,976.57
10.149,-0.16,1.20,-0.28,-7.78,1.63,-4.42,-0.17,1.04,2.35,976.57
10.154,-0.16,1.20,-0.28,-7.78,1.63,-4.42,0.07,-0.64,1.65,976.57
10.156,-0.16,1.20,-0.28,-5.39,2.74,-3.58,0.07,-0.64,1.65,976.57
10.157,-0.16,1.20,-0.28,-5.39,2.74,-3.58,0.07,-0.64,1.65,976.57
10.158,0.10,0.95,-0.23,-5.39,2.74,-3.58,0.07,-0.64,1.65,976.57
10.167,-0.10,0.78,-0.50,-5.39,2.74,-3.58,0.07,-0.64,1.65,976.57
10.168,-0.10,0.78,-0.50,-5.39,2.74,-3.58,0.30,-0.81,0.60,976.57
10.169,-0.10,0.78,-0.50,-5.46,2.71,-3.42,0.30,-0.81,0.60,976.57
10.197,-0.68,1.41,-1.93,-5.46,2.71,-3.42,0.30,-0.81,0.60,976.57
10.199,-0.68,1.41,-1.93,-5.46,2.71,-3.42,0.30,-0.81,0.60,976.57
10.207,-0.90,1.97,-0.08,-5.46,2.71,-3.42,0.30,-0.81,0.60,976.57
10.209,-0.90,1.97,-0.08,-1.26,1.09,-6.36,0.30,-0.81,0.60,976.57
10.21,-0.90,1.97,-0.08,-1.26,1.09,-6.36,0.85,0.98,-1.99,976.57
10.23,1.69,3.37,0.77,-1.26,1.09,-6.36,0.85,0.98,-1.99,976.57
10.267,2.20,2.55,0.55,-1.26,1.09,-6.36,0.85,0.98,-1.99,976.57
10.269,2.20,2.55,0.55,10.75,16.37,6.42,0.85,0.98,-1.99,976.57
10.27,2.20,2.55,0.55,10.75,16.37,6.42,0.48,0.26,-0.72,976.57
10.271,2.20,2.55,0.55,10.75,16.37,6.42,0.48,0.26,-0.72,976.56
10.272,0.20,-0.40,-1.56,10.75,16.37,6.42,0.48,0.26,-0.72,976.56
10.286,-1.05,-0.72,-0.82,10.75,16.37,6.42,0.48,0.26,-0.72,976.56
10.287,-1.05,-0.72,-0.82,10.75,16.37,6.42,1.19,1.09,-2.93,976.56
10.287,-1.05,-0.72,-0.82,11.51,16.39,6.80,1.19,1.09,-2.93,976.56
10.327,-1.48,0.80,-0.37,11.51,16.39,6.80,1.19,1.09,-2.93,976.56
10.332,-1.48,0.80,-0.37,11.51,16.39,6.80,1.19,1.09,-2.93,976.56
10.334,-1.43,1.42,-0.22,11.51,16.39,6.80,1.19,1.09,-2.93,976.56
10.336,-1.43,1.42,-0.22,11.51,16.39,6.80,0.60,0.56,-3.70,976.56
10.337,-1.43,1.42,-0.22,-4.52,-9.82,-5.88,0.60,0.56,-3.70,976.56
10.377,-0.54,0.90,-0.33,-4.52,-9.82,-5.88,0.60,0.56,-3.70,976.56
10.381,0.14,0.90,-0.43,-4.52,-9.82,-5.88,0.60,0.56,-3.70,976.56
10.384,0.14,0.90,-0.43,-4.52,-9.82,-5.88,0.19,-0.41,-1.28,976.56
10.386,0.14,0.90,-0.43,-2.33,1.89,-0.07,0.19,-0.41,-1.28,976.56
10.388,0.14,0.90,-0.43,-2.33,1.89,-0.07,0.19,-0.41,-1.28,976.57
10.39,-0.40,0.71,-0.32,-2.33,1.89,-0.07,0.19,-0.41,-1.28,976.57
10.42,-0.40,0.71,-0.32,-1.87,2.07,0.02,0.19,-0.41,-1.28,976.57
10.421,-0.73,0.80,-0.40,-1.87,2.07,0.02,0.19,-0.41,-1.28,976.57
10.422,-0.73,0.80,-0.40,-1.87,2.07,0.02,0.32,-0.15,-1.19,976.57
10.425,-0.36,0.88,-0.39,-1.87,2.07,0.02,0.32,-0.15,-1.19,976.57
10.427,-0.36,0.88,-0.39,-1.87,2.07,0.02,0.32,-0.15,-1.19,976.56
10.459,-0.35,0.78,-0.24,-1.87,2.07,0.02,0.32,-0.15,-1.19,976.56
10.463,-0.35,0.78,-0.24,-1.87,2.07,0.02,0.33,-0.16,-1.42,976.56
10.465,-0.35,0.78,-0.24,-0.28,-0.32,-0.31,0.33,-0.16,-1.42,976.56
10.467,-0.39,0.91,-0.16,-0.28,-0.32,-0.31,0.33,-0.16,-1.42,976.56
10.482,-0.41,0.98,-0.27,-0.28,-0.32,-0.31,0.33,-0.16,-1.42,976.56
10.484,-0.41,0.98,-0.27,-0.28,-0.32,-0.31,0.48,-0.71,-1.54,976.56
10.484,-0.41,0.98,-0.27,1.36,0.89,1.14,0.48,-0.71,-1.54,976.56
10.487,-0.41,0.98,-0.27,1.36,0.89,1.14,0.48,-0.71,-1.54,976.56
10.503,-0.39,1.28,-0.41,1.36,0.89,1.14,0.48,-0.71,-1.54,976.56
10.545,-0.35,1.56,-0.43,1.36,0.89,1.14,0.48,-0.71,-1.54,976.56
10.548,-0.35,1.56,-0.43,1.36,0.89,1.14,0.76,-1.00,-1.94,976.56
10.55,-0.35,1.56,-0.43,2.04,1.38,1.13,0.76,-1.00,-1.94,976.56
10.552,-0.18,2.08,-0.41,2.04,1.38,1.13,0.76,-1.00,-1.94,976.56
10.558,-0.18,2.08,-0.41,2.04,1.38,1.13,0.76,-1.00,-1.94,976.56
10.563,-0.18,2.08,-0.41,3.58,9.28,-0.90,0.76,-1.00,-1.94,976.56
10.566,0.12,2.42,-0.37,3.58,9.28,-0.90,0.76,-1.00,-1.94,976.56
10.569,0.12,2.42,-0.37,3.58,9.28,-0.90,0.98,-1.58,-2.24,976.56
10.583,-0.02,1.63,-0.19,3.58,9.28,-0.90,0.98,-1.58,-2.24,976.56
10.603,-0.19,0.63,-0.08,3.58,9.28,-0.90,0.98,-1.58,-2.24,976.56
10.606,-0.19,0.63,-0.08,3.58,9.28,-0.90,0.97,-1.55,-2.53,976.56
10.607,-0.19,0.63,-0.08,6.99,9.18,0.90,0.97,-1.55,-2.53,976.56
10.608,-0.19,0.63,-0.08,6.99,9.18,0.90,0.97,-1.55,-2.53,976.57
10.629,-0.28,-0.01,-0.24,6.99,9.18,0.90,0.97,-1.55,-2.53,976.57
10.65,-0.56,-0.74,-0.05,6.99,9.18,0.90,0.97,-1.55,-2.53,976.57
10.653,-0.56,-0.74,-0.05,6.99,9.18,0.90,0.68,-0.62,-1.44,976.57
10.655,-0.56,-0.74,-0.05,7.27,9.53,0.86,0.68,-0.62,-1.44,976.57
10.661,-0.16,-0.50,0.26,7.27,9.53,0.86,0.68,-0.62,-1.44,976.57
10.667,-0.16,-0.50,0.26,7.27,9.53,0.86,0.68,-0.62,-1.44,976.58
10.681,0.26,0.58,-0.24,7.27,9.53,0.86,0.68,-0.62,-1.44,976.58
10.683,0.26,0.58,-0.24,7.27,9.53,0.86,-0.29,-0.71,1.13,976.58
10.683,0.26,0.58,-0.24,4.02,-10.05,2.51,-0.29,-0.71,1.13,976.58
10.701,0.13,0.86,0.16,4.02,-10.05,2.51,-0.29,-0.71,1.13,976.58
10.721,0.13,0.86,0.16,5.83,-1.16,2.36,-0.29,-0.71,1.13,976.58
10.728,-0.56,0.32,0.10,5.83,-1.16,2.36,-0.29,-0.71,1.13,976.58
10.729,-0.56,0.32,0.10,5.83,-1.16,2.36,-0.91,-0.33,3.14,976.58
10.73,-0.56,0.32,0.10,5.83,-1.16,2.36,-0.91,-0.33,3.14,976.58
10.758,-0.43,0.33,0.06,5.83,-1.16,2.36,-0.91,-0.33,3.14,976.58
10.76,-0.30,0.51,-0.09,5.83,-1.16,2.36,-0.91,-0.33,3.14,976.58
10.76,-0.30,0.51,-0.09,5.83,-1.16,2.36,-0.88,0.73,3.96,976.58
10.761,-0.30,0.51,-0.09,4.53,-2.11,2.23,-0.88,0.73,3.96,976.58
10.779,-0.49,0.39,-0.15,4.53,-2.11,2.23,-0.88,0.73,3.96,976.58
10.786,-0.49,0.39,-0.15,4.53,-2.11,2.23,-0.88,0.73,3.96,976.56
10.8,-0.45,0.35,-0.17,4.53,-2.11,2.23,-0.88,0.73,3.96,976.56
10.803,-0.45,0.35,-0.17,4.53,-2.11,2.23,-0.81,0.51,4.87,976.56
10.805,-0.45,0.35,-0.17,-0.48,-4.67,1.34,-0.81,0.51,4.87,976.56
10.832,-0.49,0.59,-0.20,-0.48,-4.67,1.34,-0.81,0.51,4.87,976.56
10.872,-0.52,0.92,-0.41,-0.48,-4.67,1.34,-0.81,0.51,4.87,976.56
10.874,-0.52,0.92,-0.41,-0.48,-4.67,1.34,-0.53,0.56,4.86,976.56
10.876,-0.52,0.92,-0.41,-3.00,-3.09,-0.75,-0.53,0.56,4.86,976.56
10.879,-0.52,0.92,-0.41,-3.00,-3.09,-0.75,-0.53,0.56,4.86,976.57
10.88,-0.62,1.13,-0.53,-3.00,-3.09,-0.75,-0.53,0.56,4.86,976.57
10.881,-1.03,1.18,-0.52,-3.00,-3.09,-0.75,-0.53,0.56,4.86,976.57
10.882,-1.03,1.18,-0.52,-3.00,-3.09,-0.75,-0.40,0.98,3.31,976.57
10.883,-1.03,1.18,-0.52,-4.21,-3.22,-0.84,-0.40,0.98,3.31,976.57
10.898,-1.59,1.08,-0.30,-4.21,-3.22,-0.84,-0.40,0.98,3.31,976.57
10.919,-1.59,1.08,-0.30,-4.21,-3.22,-0.84,-0.40,0.98,3.31,976.58
10.922,-1.23,1.06,-0.34,-4.21,-3.22,-0.84,-0.40,0.98,3.31,976.58
10.923,-1.23,1.06,-0.34,-4.21,-3.22,-0.84,-0.39,1.21,1.37,976.58
10.924,-1.23,1.06,-0.34,-10.39,1.68,-2.76,-0.39,1.21,1.37,976.58
10.955,-0.62,1.29,-0.22,-10.39,1.68,-2.76,-0.39,1.21,1.37,976.58
10.958,-0.42,1.45,-0.19,-10.39,1.68,-2.76,-0.39,1.21,1.37,976.58
10.959,-0.42,1.45,-0.19,-10.39,1.68,-2.76,-0.11,-0.20,0.44,976.58
10.96,-0.42,1.45,-0.19,-7.28,2.97,-0.85,-0.11,-0.20,0.44,976.58
10.966,-0.42,1.45,-0.19,-7.28,2.97,-0.85,-0.11,-0.20,0.44,976.60
10.977,-0.32,1.22,-0.40,-7.28,2.97,-0.85,-0.11,-0.20,0.44,976.60
10.998,-0.33,1.49,-1.68,-7.28,2.97,-0.85,-0.11,-0.20,0.44,976.60
11.0,-0.33,1.49,-1.68,-7.28,2.97,-0.85,0.14,0.74,-1.64,976.60
11.001,-0.33,1.49,-1.68,-6.61,2.95,-0.78,0.14,0.74,-1.64,976.60
11.019,-0.35,1.71,-1.14,-6.61,2.95,-0.78,0.14,0.74,-1.64,976.60
11.028,-0.35,1.71,-1.14,-6.61,2.95,-0.78,0.14,0.74,-1.64,976.61
11.038,0.94,1.48,-0.98,-6.61,2.95,-0.78,0.14,0.74,-1.64,976.61
11.041,0.94,1.48,-0.98,-6.61,2.95,-0.78,0.80,2.53,-2.24,976.61
11.042,0.94,1.48,-0.98,-1.80,5.09,-8.27,0.80,2.53,-2.24,976.61
11.056,1.10,2.67,0.74,-1.80,5.09,-8.27,0.80,2.53,-2.24,976.61
11.076,0.31,2.32,0.04,-1.80,5.09,-8.27,0.80,2.53,-2.24,976.61
11.078,0.31,2.32,0.04,-1.80,5.09,-8.27,0.84,-0.44,-1.44,976.61
11.079,0.31,2.32,0.04,9.55,11.74,1.85,0.84,-0.44,-1.44,976.61
11.086,0.31,2.32,0.04,9.55,11.74,1.85,0.84,-0.44,-1.44,976.61
11.095,-0.62,-0.15,-0.78,9.55,11.74,1.85,0.84,-0.44,-1.44,976.61
11.118,-0.62,-0.15,-0.78,10.49,11.99,2.31,0.84,-0.44,-1.44,976.61
11.12,-1.71,-0.46,-0.71,10.49,11.99,2.31,0.84,-0.44,-1.44,976.61
11.121,-1.71,-0.46,-0.71,10.49,11.99,2.31,1.08,1.11,-3.41,976.61
11.152,-1.60,1.03,-0.62,10.49,11.99,2.31,1.08,1.11,-3.41,976.61
11.154,-1.60,1.03,-0.62,10.49,11.99,2.31,1.08,1.11,-3.41,976.61
11.155,-0.38,1.50,-0.21,10.49,11.99,2.31,1.08,1.11,-3.41,976.61
11.159,-0.38,1.50,-0.21,10.49,11.99,2.31,0.77,-0.35,-2.04,976.61
11.16,-0.38,1.50,-0.21,-9.10,-7.32,-3.64,0.77,-0.35,-2.04,976.61
11.176,-0.34,0.50,-0.28,-9.10,-7.32,-3.64,0.77,-0.35,-2.04,976.61
11.194,-0.53,0.28,-0.51,-9.10,-7.32,-3.64,0.77,-0.35,-2.04,976.61
11.197,-0.53,0.28,-0.51,-9.10,-7.32,-3.64,0.32,-0.73,-0.40,976.61
11.199,-0.53,0.28,-0.51,-0.11,-1.11,-0.04,0.32,-0.73,-0.40,976.61
11.209,-0.53,0.28,-0.51,-0.11,-1.11,-0.04,0.32,-0.73,-0.40,976.60
11.214,-0.75,0.49,-0.45,-0.11,-1.11,-0.04,0.32,-0.73,-0.40,976.60
11.246,-0.58,0.73,-0.39,-0.11,-1.11,-0.04,0.32,-0.73,-0.40,976.60
11.249,-0.58,0.73,-0.39,-0.11,-1.11,-0.04,0.23,0.07,-0.70,976.60
11.251,-0.58,0.73,-0.39,0.11,-0.95,0.05,0.23,0.07,-0.70,976.60
11.256,-0.30,1.21,-0.39,0.11,-0.95,0.05,0.23,0.07,-0.70,976.60
11.266,-0.30,1.21,-0.39,0.11,-0.95,0.05,0.23,0.07,-0.70,976.59
11.286,0.02,1.52,-0.20,0.11,-0.95,0.05,0.23,0.07,-0.70,976.59
11.289,0.02,1.52,-0.20,0.11,-0.95,0.05,0.20,-0.41,-0.49,976.59
11.291,0.02,1.52,-0.20,-0.89,-0.32,-0.69,0.20,-0.41,-0.49,976.59
11.294,-0.02,0.97,-0.31,-0.89,-0.32,-0.69,0.20,-0.41,-0.49,976.59
11.313,-0.62,0.64,-0.37,-0.89,-0.32,-0.69,0.20,-0.41,-0.49,976.59
11.314,-0.62,0.64,-0.37,-0.89,-0.32,-0.69,0.30,-0.62,-1.08,976.59
11.315,-0.62,0.64,-0.37,2.76,2.15,0.45,0.30,-0.62,-1.08,976.59
11.345,-0.62,0.64,-0.37,2.76,2.15,0.45,0.30,-0.62,-1.08,976.59
11.346,-0.53,0.74,-0.30,2.76,2.15,0.45,0.30,-0.62,-1.08,976.59
11.352,-0.36,0.90,-0.32,2.76,2.15,0.45,0.30,-0.62,-1.08,976.59
11.352,-0.36,0.90,-0.32,2.76,2.15,0.45,0.46,-0.64,-1.67,976.59
11.353,-0.36,0.90,-0.32,3.31,2.51,0.45,0.46,-0.64,-1.67,976.59
11.373,-0.40,1.25,-0.36,3.31,2.51,0.45,0.46,-0.64,-1.67,976.59
11.386,-0.40,1.25,-0.36,3.31,2.51,0.45,0.46,-0.64,-1.67,976.60
11.393,-0.42,1.57,-0.47,3.31,2.51,0.45,0.46,-0.64,-1.67,976.60
11.396,-0.42,1.57,-0.47,3.31,2.51,0.45,0.63,-0.98,-1.90,976.60
11.398,-0.42,1.57,-0.47,1.80,2.22,0.07,0.63,-0.98,-1.90,976.60
11.412,-0.24,1.98,-0.48,1.80,2.22,0.07,0.63,-0.98,-1.90,976.60
11.442,-0.13,1.99,-0.39,1.80,2.22,0.07,0.63,-0.98,-1.90,976.60
11.444,-0.13,1.99,-0.39,1.80,2.22,0.07,0.91,-1.41,-2.29,976.60
11.444,-0.13,1.99,-0.39,4.19,11.35,-1.18,0.91,-1.41,-2.29,976.60
11.448,-0.13,1.99,-0.39,4.19,11.35,-1.18,0.91,-1.41,-2.29,976.61
11.451,-0.26,1.48,-0.22,4.19,11.35,-1.18,0.91,-1.41,-2.29,976.61
11.476,-0.19,0.84,-0.20,4.19,11.35,-1.18,0.91,-1.41,-2.29,976.61
11.478,-0.19,0.84,-0.20,4.19,11.35,-1.18,1.10,-1.51,-2.44,976.61
11.479,-0.19,0.84,-0.20,4.91,11.98,-1.31,1.10,-1.51,-2.44,976.61
11.491,-0.27,0.12,-0.36,4.91,11.98,-1.31,1.10,-1.51,-2.44,976.61
11.505,-0.27,0.12,-0.36,4.91,11.98,-1.31,1.10,-1.51,-2.44,976.61
11.51,-0.63,-0.52,-0.29,4.91,11.98,-1.31,1.10,-1.51,-2.44,976.61
11.511,-0.63,-0.52,-0.29,4.91,11.98,-1.31,0.69,-0.32,-1.28,976.61
11.512,-0.63,-0.52,-0.29,5.34,2.29,0.58,0.69,-0.32,-1.28,976.61
11.537,-0.32,-0.65,0.52,5.34,2.29,0.58,0.69,-0.32,-1.28,976.61
11.566,-0.15,0.24,-0.26,5.34,2.29,0.58,0.69,-0.32,-1.28,976.61
11.567,-0.15,0.24,-0.26,5.34,2.29,0.58,-0.48,-0.37,1.04,976.61
11.568,-0.15,0.24,-0.26,3.84,-8.93,2.73,-0.48,-0.37,1.04,976.61
11.569,-0.15,0.24,-0.26,3.84,-8.93,2.73,-0.48,-0.37,1.04,976.61
11.57,0.07,0.81,0.04,3.84,-8.93,2.73,-0.48,-0.37,1.04,976.61
11.589,-0.26,0.61,0.11,3.84,-8.93,2.73,-0.48,-0.37,1.04,976.61
11.592,-0.26,0.61,0.11,3.84,-8.93,2.73,-1.07,-0.77,3.10,976.61
11.592,-0.26,0.61,0.11,3.08,-9.75,2.20,-1.07,-0.77,3.10,976.61
11.61,-0.43,0.37,0.12,3.08,-9.75,2.20,-1.07,-0.77,3.10,976.61
11.638,-0.43,0.37,0.12,3.08,-9.75,2.20,-1.07,-0.77,3.10,976.61
11.641,-0.25,0.49,0.02,3.08,-9.75,2.20,-1.07,-0.77,3.10,976.61
11.642,-0.25,0.49,0.02,3.08,-9.75,2.20,-1.03,0.30,3.75,976.61
11.643,-0.25,0.49,0.02,3.51,-1.87,2.92,-1.03,0.30,3.75,976.61
11.649,-0.33,0.52,-0.07,3.51,-1.87,2.92,-1.03,0.30,3.75,976.61
11.677,-0.43,0.39,-0.24,3.51,-1.87,2.92,-1.03,0.30,3.75,976.61
11.68,-0.43,0.39,-0.24,3.51,-1.87,2.92,-0.95,1.26,4.41,976.61
11.682,-0.43,0.39,-0.24,0.70,-3.96,1.03,-0.95,1.26,4.41,976.61
11.685,-0.43,0.39,-0.24,0.70,-3.96,1.03,-0.95,1.26,4.41,976.61
11.687,-0.51,0.46,-0.39,0.70,-3.96,1.03,-0.95,1.26,4.41,976.61
11.713,-0.57,0.78,-0.47,0.70,-3.96,1.03,-0.95,1.26,4.41,976.61
11.714,-0.57,0.78,-0.47,0.70,-3.96,1.03,-0.81,1.64,4.72,976.61
11.715,-0.57,0.78,-0.47,-1.06,-4.53,0.93,-0.81,1.64,4.72,976.61
11.743,-0.66,1.14,-0.58,-1.06,-4.53,0.93,-0.81,1.64,4.72,976.61
11.745,-0.66,1.14,-0.58,-1.06,-4.53,0.93,-0.81,1.64,4.72,976.60
11.747,-1.01,1.25,-0.54,-1.06,-4.53,0.93,-0.81,1.64,4.72,976.60
11.748,-1.01,1.25,-0.54,-1.06,-4.53,0.93,-0.76,1.27,3.87,976.60
11.749,-1.01,1.25,-0.54,-4.89,-1.56,-3.02,-0.76,1.27,3.87,976.60
11.767,-1.23,1.18,-0.55,-4.89,-1.56,-3.02,-0.76,1.27,3.87,976.60
11.788,-1.23,1.18,-0.55,-10.79,2.21,-4.02,-0.76,1.27,3.87,976.60
11.792,-1.07,1.14,-0.62,-10.79,2.21,-4.02,-0.76,1.27,3.87,976.60
11.795,-1.07,1.14,-0.62,-10.79,2.21,-4.02,-0.61,0.36,2.59,976.60
11.806,-1.07,1.14,-0.62,-10.79,2.21,-4.02,-0.61,0.36,2.59,976.60
11.809,-0.61,1.07,-0.64,-10.79,2.21,-4.02,-0.61,0.36,2.59,976.60
11.853,-0.33,1.08,-0.37,-10.79,2.21,-4.02,-0.61,0.36,2.59,976.60
11.856,-0.33,1.08,-0.37,-10.79,2.21,-4.02,-0.18,-0.46,1.47,976.60
11.857,-0.33,1.08,-0.37,-11.12,2.17,-4.02,-0.18,-0.46,1.47,976.60
11.859,-0.43,1.04,-0.35,-11.12,2.17,-4.02,-0.18,-0.46,1.47,976.60
11.864,-0.43,1.04,-0.35,-11.12,2.17,-4.02,-0.18,-0.46,1.47,976.62
11.866,-0.79,1.00,-0.55,-11.12,2.17,-4.02,-0.18,-0.46,1.47,976.62
11.867,-0.79,1.00,-0.55,-11.12,2.17,-4.02,0.32,-0.56,-0.39,976.62
11.867,-0.79,1.00,-0.55,-4.58,0.92,-2.69,0.32,-0.56,-0.39,976.62
11.888,-0.82,1.30,-1.41,-4.58,0.92,-2.69,0.32,-0.56,-0.39,976.62
11.905,-0.68,1.79,-0.19,-4.58,0.92,-2.69,0.32,-0.56,-0.39,976.62
11.906,-0.68,1.79,-0.19,-4.58,0.92,-2.69,0.64,0.06,-2.21,976.62
11.907,-0.68,1.79,-0.19,-6.60,3.87,-4.98,0.64,0.06,-2.21,976.62
11.935,-0.68,1.79,-0.19,-6.60,3.87,-4.98,0.64,0.06,-2.21,976.63
11.937,0.75,1.58,-0.20,-6.60,3.87,-4.98,0.64,0.06,-2.21,976.63
11.978,2.24,1.88,0.57,-6.60,3.87,-4.98,0.64,0.06,-2.21,976.63
11.981,2.24,1.88,0.57,-6.60,3.87,-4.98,0.71,-0.48,-0.38,976.63
11.982,2.24,1.88,0.57,-6.31,3.88,-4.65,0.71,-0.48,-0.38,976.63
11.984,0.79,2.47,-0.07,-6.31,3.88,-4.65,0.71,-0.48,-0.38,976.63
11.985,0.79,2.47,-0.07,-6.31,3.88,-4.65,0.71,-0.48,-0.38,976.64
11.987,0.79,2.47,-0.07,13.64,9.88,3.62,0.71,-0.48,-0.38,976.64
11.988,-0.61,1.32,-0.55,13.64,9.88,3.62,0.71,-0.48,-0.38,976.64
11.989,-0.61,1.32,-0.55,13.64,9.88,3.62,0.61,2.04,-1.56,976.64
12.004,-0.99,0.12,-0.76,13.64,9.88,3.62,0.61,2.04,-1.56,976.64
12.026,-1.45,0.15,-0.68,13.64,9.88,3.62,0.61,2.04,-1.56,976.64
12.03,-1.45,0.15,-0.68,13.64,9.88,3.62,0.84,1.31,-3.38,976.64
12.033,-1.45,0.15,-0.68,-7.43,-3.88,-3.39,0.84,1.31,-3.38,976.64
12.058,-1.45,0.15,-0.68,-7.43,-3.88,-3.39,0.84,1.31,-3.38,976.64
12.061,-0.72,0.95,-0.47,-7.43,-3.88,-3.39,0.84,1.31,-3.38,976.64
12.063,-0.39,0.99,-0.36,-7.43,-3.88,-3.39,0.84,1.31,-3.38,976.64
12.064,-0.39,0.99,-0.36,-7.43,-3.88,-3.39,0.32,-0.25,-1.23,976.64
12.064,-0.39,0.99,-0.36,-6.85,-3.65,-3.25,0.32,-0.25,-1.23,976.64
12.083,-0.42,0.86,-0.42,-6.85,-3.65,-3.25,0.32,-0.25,-1.23,976.64
12.104,-0.25,1.16,-0.32,-6.85,-3.65,-3.25,0.32,-0.25,-1.23,976.64
12.107,-0.25,1.16,-0.32,-6.85,-3.65,-3.25,-0.01,-0.03,-0.31,976.64
12.109,-0.25,1.16,-0.32,-1.74,0.33,-0.81,-0.01,-0.03,-0.31,976.64
12.11,-0.25,1.16,-0.32,-1.74,0.33,-0.81,-0.01,-0.03,-0.31,976.64
12.137,-0.24,0.93,-0.28,-1.74,0.33,-0.81,-0.01,-0.03,-0.31,976.64
12.146,-0.29,0.85,-0.35,-1.74,0.33,-0.81,-0.01,-0.03,-0.31,976.64
12.146,-0.29,0.85,-0.35,-1.74,0.33,-0.81,0.01,0.06,-0.56,976.64
12.147,-0.29,0.85,-0.35,0.91,0.83,0.17,0.01,0.06,-0.56,976.64
12.169,-0.15,0.97,-0.39,0.91,0.83,0.17,0.01,0.06,-0.56,976.64
12.17,-0.15,0.97,-0.39,0.91,0.83,0.17,0.01,0.06,-0.56,976.63
12.181,-0.09,0.88,-0.33,0.91,0.83,0.17,0.01,0.06,-0.56,976.63
12.183,-0.09,0.88,-0.33,0.91,0.83,0.17,0.08,-0.00,-0.79,976.63
12.183,-0.09,0.88,-0.33,1.16,0.94,0.20,0.08,-0.00,-0.79,976.63
12.202,-0.25,0.86,-0.30,1.16,0.94,0.20,0.08,-0.00,-0.79,976.63
12.222,-0.17,0.88,-0.27,1.16,0.94,0.20,0.08,-0.00,-0.79,976.63
12.224,-0.17,0.88,-0.27,1.16,0.94,0.20,0.16,-0.12,-1.21,976.63
12.225,-0.17,0.88,-0.27,2.49,0.38,0.02,0.16,-0.12,-1.21,976.63
12.226,-0.17,0.88,-0.27,2.49,0.38,0.02,0.16,-0.12,-1.21,976.63
12.254,-0.19,0.72,-0.24,2.49,0.38,0.02,0.16,-0.12,-1.21,976.63
12.263,-0.50,0.80,-0.34,2.49,0.38,0.02,0.16,-0.12,-1.21,976.63
12.265,-0.50,0.80,-0.34,2.49,0.38,0.02,0.33,-0.31,-1.73,976.63
12.266,-0.50,0.80,-0.34,1.81,-0.26,0.58,0.33,-0.31,-1.73,976.63
12.28,-0.63,1.14,-0.37,1.81,-0.26,0.58,0.33,-0.31,-1.73,976.63
12.284,-0.63,1.14,-0.37,1.81,-0.26,0.58,0.33,-0.31,-1.73,976.63
12.301,-0.37,1.14,-0.34,1.81,-0.26,0.58,0.33,-0.31,-1.73,976.63
12.303,-0.37,1.14,-0.34,1.81,-0.26,0.58,0.54,-0.62,-2.06,976.63
12.305,-0.37,1.14,-0.34,2.50,0.22,0.62,0.54,-0.62,-2.06,976.63
12.32,-0.31,1.16,-0.34,2.50,0.22,0.62,0.54,-0.62,-2.06,976.63
12.343,-0.45,1.36,-0.40,2.50,0.22,0.62,0.54,-0.62,-2.06,976.63
12.344,-0.45,1.36,-0.40,2.50,0.22,0.62,0.71,-1.13,-2.30,976.63
12.345,-0.45,1.36,-0.40,2.50,0.22,0.62,0.71,-1.13,-2.30,976.63
12.346,-0.45,1.36,-0.40,1.81,4.13,-0.06,0.71,-1.13,-2.30,976.63
12.376,-0.62,1.58,-0.42,1.81,4.13,-0.06,0.71,-1.13,-2.30,976.63
12.379,-0.72,1.97,-0.28,1.81,4.13,-0.06,0.71,-1.13,-2.30,976.63
12.38,-0.72,1.97,-0.28,1.81,4.13,-0.06,0.77,-1.33,-2.82,976.63
12.38,-0.72,1.97,-0.28,1.14,9.63,-0.38,0.77,-1.33,-2.82,976.63
12.399,-0.24,1.71,-0.24,1.14,9.63,-0.38,0.77,-1.33,-2.82,976.63
12.403,-0.24,1.71,-0.24,1.14,9.63,-0.38,0.77,-1.33,-2.82,976.62
12.42,-0.24,1.71,-0.24,1.98,10.38,-0.68,0.77,-1.33,-2.82,976.62
12.423,-0.11,0.89,-0.33,1.98,10.38,-0.68,0.77,-1.33,-2.82,976.62
12.425,-0.11,0.89,-0.33,1.98,10.38,-0.68,0.69,-1.61,-2.88,976.62
12.451,-0.44,0.52,-0.36,1.98,10.38,-0.68,0.69,-1.61,-2.88,976.62
12.492,-0.66,0.25,-0.28,1.98,10.38,-0.68,0.69,-1.61,-2.88,976.62
12.494,-0.66,0.25,-0.28,1.98,10.38,-0.68,0.58,-0.21,-1.83,976.62
12.495,-0.66,0.25,-0.28,5.59,5.08,-0.08,0.58,-0.21,-1.83,976.62
12.5,-0.66,0.25,-0.28,5.59,5.08,-0.08,0.58,-0.21,-1.83,976.62
12.502,-0.71,-0.13,-0.07,5.59,5.08,-0.08,0.58,-0.21,-1.83,976.62
12.503,-0.40,-0.73,0.15,5.59,5.08,-0.08,0.58,-0.21,-1.83,976.62
12.505,-0.40,-0.73,0.15,5.59,5.08,-0.08,-0.03,0.29,0.05,976.62
12.507,-0.40,-0.73,0.15,2.30,-6.98,2.40,-0.03,0.29,0.05,976.62
12.518,-0.16,-0.44,-0.16,2.30,-6.98,2.40,-0.03,0.29,0.05,976.62
12.523,-0.16,-0.44,-0.16,2.30,-6.98,2.40,-0.03,0.29,0.05,976.62
12.542,-0.18,0.32,-0.09,2.30,-6.98,2.40,-0.03,0.29,0.05,976.62
12.545,-0.18,0.32,-0.09,2.30,-6.98,2.40,-0.65,-0.80,1.95,976.62
12.546,-0.18,0.32,-0.09,1.95,-7.53,1.97,-0.65,-0.80,1.95,976.62
12.583,-0.09,0.62,0.12,1.95,-7.53,1.97,-0.65,-0.80,1.95,976.62
12.587,-0.31,0.43,0.09,1.95,-7.53,1.97,-0.65,-0.80,1.95,976.62
12.589,-0.31,0.43,0.09,1.95,-7.53,1.97,-1.00,-0.01,3.31,976.62
12.591,-0.31,0.43,0.09,5.44,-4.91,1.90,-1.00,-0.01,3.31,976.62
12.594,-0.31,0.43,0.09,5.44,-4.91,1.90,-1.00,-0.01,3.31,976.64
12.6,-0.28,0.22,0.07,5.44,-4.91,1.90,-1.00,-0.01,3.31,976.64
12.619,-0.13,0.29,-0.00,5.44,-4.91,1.90,-1.00,-0.01,3.31,976.64
12.623,-0.13,0.29,-0.00,3.31,-4.42,2.65,-1.00,-0.01,3.31,976.64
12.627,-0.13,0.29,-0.00,3.31,-4.42,2.65,-0.94,0.50,3.86,976.64
12.644,-0.15,0.39,-0.08,3.31,-4.42,2.65,-0.94,0.50,3.86,976.64
12.658,-0.15,0.39,-0.08,3.31,-4.42,2.65,-0.94,0.50,3.86,976.64
12.665,-0.27,0.42,-0.16,3.31,-4.42,2.65,-0.94,0.50,3.86,976.64
12.666,-0.27,0.42,-0.16,3.31,-4.42,2.65,-0.84,1.19,4.49,976.64
12.666,-0.27,0.42,-0.16,1.77,-5.27,2.58,-0.84,1.19,4.49,976.64
12.676,-0.40,0.61,-0.36,1.77,-5.27,2.58,-0.84,1.19,4.49,976.64
12.695,-0.46,1.01,-0.64,1.77,-5.27,2.58,-0.84,1.19,4.49,976.64
12.697,-0.46,1.01,-0.64,1.77,-5.27,2.58,-0.77,1.99,4.78,976.64
12.697,-0.46,1.01,-0.64,-0.36,-4.31,0.08,-0.77,1.99,4.78,976.64
12.702,-0.46,1.01,-0.64,-0.36,-4.31,0.08,-0.77,1.99,4.78,976.63
12.714,-0.56,1.48,-0.71,-0.36,-4.31,0.08,-0.77,1.99,4.78,976.63
12.737,-0.79,1.67,-0.78,-0.36,-4.31,0.08,-0.77,1.99,4.78,976.63
12.739,-0.79,1.67,-0.78,-0.36,-4.31,0.08,-0.90,1.56,4.03,976.63
12.74,-0.79,1.67,-0.78,-5.08,4.27,-5.02,-0.90,1.56,4.03,976.63
12.825,-1.04,1.40,-0.84,-5.08,4.27,-5.02,-0.90,1.56,4.03,976.63
12.827,-1.04,1.40,-0.84,-5.08,4.27,-5.02,-0.90,1.56,4.03,976.63
12.827,-1.33,0.92,-0.75,-5.08,4.27,-5.02,-0.90,1.56,4.03,976.63
12.828,-1.33,0.92,-0.75,-5.08,4.27,-5.02,-0.67,0.42,2.13,976.63
12.829,-1.33,0.92,-0.75,-5.80,4.12,-5.17,-0.67,0.42,2.13,976.63
12.83,-1.18,0.71,-0.70,-5.80,4.12,-5.17,-0.67,0.42,2.13,976.63
12.83,-0.45,0.97,-0.34,-5.80,4.12,-5.17,-0.67,0.42,2.13,976.63
12.831,-0.45,0.97,-0.34,-5.80,4.12,-5.17,0.26,-0.92,0.69,976.63
12.831,-0.45,0.97,-0.34,-11.48,0.45,-5.55,0.26,-0.92,0.69,976.63
12.832,-0.45,0.97,-0.34,-11.48,0.45,-5.55,0.26,-0.92,0.69,976.64
12.833,-0.25,1.19,-0.43,-11.48,0.45,-5.55,0.26,-0.92,0.69,976.64
12.853,-0.46,1.22,-1.26,-11.48,0.45,-5.55,0.26,-0.92,0.69,976.64
12.856,-0.46,1.22,-1.26,-11.48,0.45,-5.55,0.70,-2.17,-0.73,976.64
12.857,-0.46,1.22,-1.26,-3.17,1.60,-4.40,0.70,-2.17,-0.73,976.64
12.873,-0.66,1.83,-0.13,-3.17,1.60,-4.40,0.70,-2.17,-0.73,976.64
12.881,-0.66,1.83,-0.13,-3.17,1.60,-4.40,0.70,-2.17,-0.73,976.64
12.902,0.64,1.64,0.54,-3.17,1.60,-4.40,0.70,-2.17,-0.73,976.64
12.903,0.64,1.64,0.54,-3.17,1.60,-4.40,0.62,0.13,-2.38,976.64
12.904,0.64,1.64,0.54,-2.27,1.73,-4.09,0.62,0.13,-2.38,976.64
12.912,1.56,1.23,-0.46,-2.27,1.73,-4.09,0.62,0.13,-2.38,976.64
12.936,0.45,3.46,-0.12,-2.27,1.73,-4.09,0.62,0.13,-2.38,976.64
12.939,0.45,3.46,-0.12,-2.27,1.73,-4.09,0.85,1.89,-0.69,976.64
12.94,0.45,3.46,-0.12,6.46,6.09,2.76,0.85,1.89,-0.69,976.64
12.948,0.45,3.46,-0.12,6.46,6.09,2.76,0.85,1.89,-0.69,976.65
12.968,0.32,2.38,0.09,6.46,6.09,2.76,0.85,1.89,-0.69,976.65
12.972,-0.79,-0.82,-1.00,6.46,6.09,2.76,0.85,1.89,-0.69,976.65
12.973,-0.79,-0.82,-1.00,6.46,6.09,2.76,0.81,1.48,-2.77,976.65
12.973,-0.79,-0.82,-1.00,2.15,7.31,-0.02,0.81,1.48,-2.77,976.65
12.991,-1.72,-0.64,-0.88,2.15,7.31,-0.02,0.81,1.48,-2.77,976.65
13.002,-1.72,-0.64,-0.88,2.15,7.31,-0.02,0.81,1.48,-2.77,976.68
13.013,-1.41,1.33,-0.36,2.15,7.31,-0.02,0.81,1.48,-2.77,976.68
13.017,-1.41,1.33,-0.36,2.15,7.31,-0.02,0.85,0.29,-3.34,976.68
13.018,-1.41,1.33,-0.36,3.22,7.66,0.30,0.85,0.29,-3.34,976.68
13.033,-0.52,1.57,-0.44,3.22,7.66,0.30,0.85,0.29,-3.34,976.68
13.066,-0.35,0.58,-0.60,3.22,7.66,0.30,0.85,0.29,-3.34,976.68
13.069,-0.35,0.58,-0.60,3.22,7.66,0.30,0.12,-0.36,-0.41,976.68
13.071,-0.35,0.58,-0.60,-8.27,-1.27,-1.81,0.12,-0.36,-0.41,976.68
13.073,-0.35,0.58,-0.60,-8.27,-1.27,-1.81,0.12,-0.36,-0.41,976.68
13.075,-0.40,0.76,-0.43,-8.27,-1.27,-1.81,0.12,-0.36,-0.41,976.68
13.099,-0.62,0.88,-0.28,-8.27,-1.27,-1.81,0.12,-0.36,-0.41,976.68
13.102,-0.62,0.88,-0.28,-8.27,-1.27,-1.81,-0.07,-0.14,-0.13,976.68
13.102,-0.62,0.88,-0.28,-0.76,-1.33,-0.64,-0.07,-0.14,-0.13,976.68
13.112,-0.35,0.82,-0.34,-0.76,-1.33,-0.64,-0.07,-0.14,-0.13,976.68
13.121,-0.35,0.82,-0.34,-0.76,-1.33,-0.64,-0.07,-0.14,-0.13,976.67
13.131,-0.14,0.90,-0.32,-0.76,-1.33,-0.64,-0.07,-0.14,-0.13,976.67
13.133,-0.14,0.90,-0.32,-0.76,-1.33,-0.64,-0.02,-0.07,-0.15,976.67
13.133,-0.14,0.90,-0.32,-0.68,-1.29,-0.64,-0.02,-0.07,-0.15,976.67
13.159,-0.11,0.96,-0.29,-0.68,-1.29,-0.64,-0.02,-0.07,-0.15,976.67
13.168,0.06,0.98,-0.33,-0.68,-1.29,-0.64,-0.02,-0.07,-0.15,976.67
13.169,0.06,0.98,-0.33,-0.68,-1.29,-0.64,0.10,-0.23,-0.36,976.67
13.172,0.06,0.98,-0.33,1.92,0.28,0.51,0.10,-0.23,-0.36,976.67
13.181,0.06,0.98,-0.33,1.92,0.28,0.51,0.10,-0.23,-0.36,976.66
13.188,0.16,0.95,-0.25,1.92,0.28,0.51,0.10,-0.23,-0.36,976.66
13.208,-0.10,0.79,-0.27,1.92,0.28,0.51,0.10,-0.23,-0.36,976.66
13.209,-0.10,0.79,-0.27,1.92,0.28,0.51,0.29,-0.26,-1.17,976.66
13.214,-0.10,0.79,-0.27,4.61,0.61,0.87,0.29,-0.26,-1.17,976.66
13.228,-0.51,0.91,-0.41,4.61,0.61,0.87,0.29,-0.26,-1.17,976.66
13.24,-0.51,0.91,-0.41,4.61,0.61,0.87,0.29,-0.26,-1.17,976.66
13.247,-0.55,1.07,-0.42,4.61,0.61,0.87,0.29,-0.26,-1.17,976.66
13.248,-0.55,1.07,-0.42,4.61,0.61,0.87,0.59,-0.33,-2.04,976.66
13.248,-0.55,1.07,-0.42,5.22,1.05,0.99,0.59,-0.33,-2.04,976.66
13.267,-0.38,1.01,-0.35,5.22,1.05,0.99,0.59,-0.33,-2.04,976.66
13.287,-0.33,1.21,-0.32,5.22,1.05,0.99,0.59,-0.33,-2.04,976.66
13.288,-0.33,1.21,-0.32,0.93,2.49,-0.06,0.59,-0.33,-2.04,976.66
13.29,-0.33,1.21,-0.32,0.93,2.49,-0.06,0.86,-1.12,-2.24,976.66
13.3,-0.33,1.21,-0.32,0.93,2.49,-0.06,0.86,-1.12,-2.24,976.65
13.307,-0.70,1.51,-0.25,0.93,2.49,-0.06,0.86,-1.12,-2.24,976.65
13.33,-0.68,1.74,-0.22,0.93,2.49,-0.06,0.86,-1.12,-2.24,976.65
13.331,-0.68,1.74,-0.22,0.93,2.49,-0.06,1.10,-1.52,-2.62,976.65
13.332,-0.68,1.74,-0.22,1.04,7.94,1.13,1.10,-1.52,-2.62,976.65
13.347,-0.67,1.99,-0.16,1.04,7.94,1.13,1.10,-1.52,-2.62,976.65
13.36,-0.67,1.99,-0.16,1.04,7.94,1.13,1.10,-1.52,-2.62,976.64
13.366,-0.22,1.67,-0.19,1.04,7.94,1.13,1.10,-1.52,-2.62,976.64
13.366,-0.22,1.67,-0.19,1.04,7.94,1.13,1.17,-2.36,-2.88,976.64
13.367,-0.22,1.67,-0.19,2.03,8.76,0.74,1.17,-2.36,-2.88,976.64
13.387,0.04,0.72,-0.41,2.03,8.76,0.74,1.17,-2.36,-2.88,976.64
13.405,-0.05,0.10,-0.58,2.03,8.76,0.74,1.17,-2.36,-2.88,976.64
13.406,-0.05,0.10,-0.58,5.35,9.17,0.65,1.17,-2.36,-2.88,976.64
13.407,-0.05,0.10,-0.58,5.35,9.17,0.65,0.87,-1.26,-2.24,976.64
13.42,-0.05,0.10,-0.58,5.35,9.17,0.65,0.87,-1.26,-2.24,976.62
13.425,-0.41,-0.33,-0.80,5.35,9.17,0.65,0.87,-1.26,-2.24,976.62
13.445,-0.48,-0.54,-0.01,5.35,9.17,0.65,0.87,-1.26,-2.24,976.62
13.446,-0.48,-0.54,-0.01,5.35,9.17,0.65,0.12,1.16,-0.83,976.62
13.446,-0.48,-0.54,-0.01,5.03,-7.25,-0.99,0.12,1.16,-0.83,976.62
13.465,-0.57,-0.24,0.25,5.03,-7.25,-0.99,0.12,1.16,-0.83,976.62
13.48,-0.57,-0.24,0.25,5.03,-7.25,-0.99,0.12,1.16,-0.83,976.62
13.485,-0.67,0.29,-0.13,5.03,-7.25,-0.99,0.12,1.16,-0.83,976.62
13.485,-0.67,0.29,-0.13,5.03,-7.25,-0.99,-1.13,0.12,1.26,976.62
13.486,-0.67,0.29,-0.13,4.68,-7.67,-1.15,-1.13,0.12,1.26,976.62
13.504,-0.27,0.39,0.14,4.68,-7.67,-1.15,-1.13,0.12,1.26,976.62
13.525,-0.21,0.28,0.02,4.68,-7.67,-1.15,-1.13,0.12,1.26,976.62
13.528,-0.21,0.28,0.02,4.68,-7.67,-1.15,-1.60,-0.79,3.12,976.62
13.529,-0.21,0.28,0.02,2.13,-4.74,3.57,-1.60,-0.79,3.12,976.62
13.553,-0.21,0.28,0.02,2.13,-4.74,3.57,-1.60,-0.79,3.12,976.63
13.557,-0.29,0.31,-0.06,2.13,-4.74,3.57,-1.60,-0.79,3.12,976.63
13.598,-0.18,0.50,0.00,2.13,-4.74,3.57,-1.60,-0.79,3.12,976.63
13.601,-0.18,0.50,0.00,2.13,-4.74,3.57,-1.48,0.19,3.83,976.63
13.602,-0.18,0.50,0.00,3.75,-3.69,2.22,-1.48,0.19,3.83,976.63
13.604,-0.18,0.55,-0.02,3.75,-3.69,2.22,-1.48,0.19,3.83,976.63
13.605,-0.18,0.55,-0.02,3.75,-3.69,2.22,-1.48,0.19,3.83,976.65
13.606,-0.29,0.55,-0.05,3.75,-3.69,2.22,-1.48,0.19,3.83,976.65
13.607,-0.29,0.55,-0.05,3.75,-3.69,2.22,-1.21,1.14,4.15,976.65
13.609,-0.29,0.55,-0.05,2.33,-4.59,2.05,-1.21,1.14,4.15,976.65
13.624,-0.38,0.65,-0.12,2.33,-4.59,2.05,-1.21,1.14,4.15,976.65
13.646,-0.53,0.82,-0.38,2.33,-4.59,2.05,-1.21,1.14,4.15,976.65
13.65,-0.53,0.82,-0.38,2.33,-4.59,2.05,-0.96,1.70,4.55,976.65
13.651,-0.53,0.82,-0.38,0.09,-3.17,1.43,-0.96,1.70,4.55,976.65
13.66,-0.53,0.82,-0.38,0.09,-3.17,1.43,-0.96,1.70,4.55,976.67
13.676,-0.52,1.11,-0.70,0.09,-3.17,1.43,-0.96,1.70,4.55,976.67
13.683,-0.52,1.43,-0.76,0.09,-3.17,1.43,-0.96,1.70,4.55,976.67
13.684,-0.52,1.43,-0.76,0.09,-3.17,1.43,-0.80,1.58,4.52,976.67
13.685,-0.52,1.43,-0.76,-3.97,1.70,-4.05,-0.80,1.58,4.52,976.67
13.703,-0.77,1.44,-0.85,-3.97,1.70,-4.05,-0.80,1.58,4.52,976.67
13.72,-0.77,1.44,-0.85,-3.97,1.70,-4.05,-0.80,1.58,4.52,976.68
13.722,-1.26,1.18,-0.70,-3.97,1.70,-4.05,-0.80,1.58,4.52,976.68
13.724,-1.26,1.18,-0.70,-3.97,1.70,-4.05,-0.64,0.49,2.88,976.68
13.725,-1.26,1.18,-0.70,-4.99,1.55,-4.20,-0.64,0.49,2.88,976.68
13.742,-1.50,0.88,-0.61,-4.99,1.55,-4.20,-0.64,0.49,2.88,976.68
13.792,-0.75,0.77,-0.64,-4.99,1.55,-4.20,-0.64,0.49,2.88,976.68
13.794,-0.75,0.77,-0.64,-4.99,1.55,-4.20,-0.06,-0.89,1.15,976.68
13.796,-0.75,0.77,-0.64,-11.52,1.94,-5.19,-0.06,-0.89,1.15,976.68
13.799,-0.75,0.77,-0.64,-11.52,1.94,-5.19,-0.06,-0.89,1.15,976.68
13.801,-0.31,0.90,-0.39,-11.52,1.94,-5.19,-0.06,-0.89,1.15,976.68
13.803,-0.20,0.98,-0.33,-11.52,1.94,-5.19,-0.06,-0.89,1.15,976.68
13.805,-0.20,0.98,-0.33,-11.52,1.94,-5.19,0.39,-2.03,0.14,976.68
13.808,-0.20,0.98,-0.33,-3.98,-0.79,-2.39,0.39,-2.03,0.14,976.68
13.822,-0.26,0.95,-0.32,-3.98,-0.79,-2.39,0.39,-2.03,0.14,976.68
13.841,-0.26,0.95,-0.32,-3.98,-0.79,-2.39,0.39,-2.03,0.14,976.68
13.843,-0.53,1.24,-1.00,-3.98,-0.79,-2.39,0.39,-2.03,0.14,976.68
13.844,-0.53,1.24,-1.00,-3.98,-0.79,-2.39,0.33,-0.80,-1.85,976.68
13.845,-0.53,1.24,-1.00,-3.17,-0.71,-2.24,0.33,-0.80,-1.85,976.68
13.876,-0.61,1.86,0.08,-3.17,-0.71,-2.24,0.33,-0.80,-1.85,976.68
13.881,0.48,1.64,-0.29,-3.17,-0.71,-2.24,0.33,-0.80,-1.85,976.68
13.882,0.48,1.64,-0.29,-3.17,-0.71,-2.24,0.40,0.95,-2.49,976.68
13.883,0.48,1.64,-0.29,-2.70,3.98,-1.65,0.40,0.95,-2.49,976.68
13.9,0.48,1.64,-0.29,-2.70,3.98,-1.65,0.40,0.95,-2.49,976.69
13.903,1.37,1.48,0.20,-2.70,3.98,-1.65,0.40,0.95,-2.49,976.69
13.921,0.02,2.25,-0.35,-2.70,3.98,-1.65,0.40,0.95,-2.49,976.69
13.923,0.02,2.25,-0.35,-2.70,3.98,-1.65,0.79,1.51,-0.69,976.69
13.924,0.02,2.25,-0.35,7.91,8.26,1.39,0.79,1.51,-0.69,976.69
13.946,-0.05,2.18,-0.22,7.91,8.26,1.39,0.79,1.51,-0.69,976.69
13.96,-0.05,2.18,-0.22,7.91,8.26,1.39,0.79,1.51,-0.69,976.70
13.961,-0.05,2.18,-0.22,8.57,8.45,1.78,0.79,1.51,-0.69,976.70
13.962,-0.79,0.05,-0.62,8.57,8.45,1.78,0.79,1.51,-0.69,976.70
13.963,-0.79,0.05,-0.62,8.57,8.45,1.78,0.85,1.34,-2.67,976.70
13.979,-1.61,-0.22,-1.03,8.57,8.45,1.78,0.85,1.34,-2.67,976.70
14.0,-1.04,1.03,-0.48,8.57,8.45,1.78,0.85,1.34,-2.67,976.70
14.003,-1.04,1.03,-0.48,8.57,8.45,1.78,0.81,0.46,-2.47,976.70
14.006,-1.04,1.03,-0.48,-4.65,-2.09,-2.53,0.81,0.46,-2.47,976.70
14.02,-1.04,1.03,-0.48,-4.65,-2.09,-2.53,0.81,0.46,-2.47,976.70
14.023,-0.35,1.24,-0.23,-4.65,-2.09,-2.53,0.81,0.46,-2.47,976.70
14.052,-0.52,0.67,-0.50,-4.65,-2.09,-2.53,0.81,0.46,-2.47,976.70
14.056,-0.52,0.67,-0.50,-4.65,-2.09,-2.53,0.14,-0.36,-0.39,976.70
14.057,-0.52,0.67,-0.50,-2.66,1.01,-0.39,0.14,-0.36,-0.39,976.70
14.059,-0.63,0.90,-0.44,-2.66,1.01,-0.39,0.14,-0.36,-0.39,976.70
14.094,-0.58,0.92,-0.34,-2.66,1.01,-0.39,0.14,-0.36,-0.39,976.70
14.097,-0.58,0.92,-0.34,-2.66,1.01,-0.39,0.02,0.11,-0.15,976.70
14.1,-0.58,0.92,-0.34,-2.58,1.01,-0.36,0.02,0.11,-0.15,976.70
14.101,-0.58,0.92,-0.34,-2.58,1.01,-0.36,0.02,0.11,-0.15,976.69
14.102,-0.42,0.83,-0.32,-2.58,1.01,-0.36,0.02,0.11,-0.15,976.69
14.118,-0.38,0.88,-0.31,-2.58,1.01,-0.36,0.02,0.11,-0.15,976.69
14.119,-0.38,0.88,-0.31,-2.58,1.01,-0.36,0.01,0.06,0.06,976.69
14.12,-0.38,0.88,-0.31,-1.66,0.06,0.03,0.01,0.06,0.06,976.69
14.144,-0.35,0.88,-0.33,-1.66,0.06,0.03,0.01,0.06,0.06,976.69
14.148,-0.35,0.88,-0.33,-1.66,0.06,0.03,0.01,0.06,0.06,976.70
14.157,-0.25,0.85,-0.29,-1.66,0.06,0.03,0.01,0.06,0.06,976.70
14.159,-0.25,0.85,-0.29,-1.66,0.06,0.03,0.08,-0.03,0.15,976.70
14.16,-0.25,0.85,-0.29,0.37,-0.08,0.61,0.08,-0.03,0.15,976.70
14.187,-0.24,0.88,-0.36,0.37,-0.08,0.61,0.08,-0.03,0.15,976.70
14.2,-0.24,0.88,-0.36,0.40,-0.03,0.66,0.08,-0.03,0.15,976.70
14.204,-0.21,0.88,-0.41,0.40,-0.03,0.66,0.08,-0.03,0.15,976.70
14.206,-0.21,0.88,-0.41,0.40,-0.03,0.66,0.22,-0.10,-0.07,976.70
14.209,-0.21,0.88,-0.41,0.40,-0.03,0.66,0.22,-0.10,-0.07,976.71
14.218,-0.18,0.90,-0.30,0.40,-0.03,0.66,0.22,-0.10,-0.07,976.71
14.241,-0.20,0.92,-0.32,0.40,-0.03,0.66,0.22,-0.10,-0.07,976.71
14.243,-0.20,0.92,-0.32,0.40,-0.03,0.66,0.30,-0.16,-0.39,976.71
14.245,-0.20,0.92,-0.32,1.69,0.21,0.25,0.30,-0.16,-0.39,976.71
14.281,-0.12,0.93,-0.42,1.69,0.21,0.25,0.30,-0.16,-0.39,976.71
14.284,-0.12,0.93,-0.42,1.69,0.21,0.25,0.30,-0.16,-0.39,976.71
14.285,-0.15,0.91,-0.41,1.69,0.21,0.25,0.30,-0.16,-0.39,976.71
14.286,-0.15,0.91,-0.41,1.69,0.21,0.25,0.40,-0.19,-0.85,976.71
14.288,-0.15,0.91,-0.41,2.48,0.72,0.12,0.40,-0.19,-0.85,976.71
14.298,-0.52,0.86,-0.41,2.48,0.72,0.12,0.40,-0.19,-0.85,976.71
14.318,-0.52,0.86,-0.41,2.97,1.02,0.20,0.40,-0.19,-0.85,976.71
14.322,-0.24,0.91,-0.49,2.97,1.02,0.20,0.40,-0.19,-0.85,976.71
14.324,-0.24,0.91,-0.49,2.97,1.02,0.20,0.56,-0.57,-1.40,976.71
14.327,-0.24,0.91,-0.49,2.97,1.02,0.20,0.56,-0.57,-1.40,976.70
14.336,-0.28,1.00,-0.53,2.97,1.02,0.20,0.56,-0.57,-1.40,976.70
14.354,-0.63,1.06,-0.45,2.97,1.02,0.20,0.56,-0.57,-1.40,976.70
14.356,-0.63,1.06,-0.45,2.97,1.02,0.20,0.61,-0.97,-1.70,976.70
14.357,-0.63,1.06,-0.45,1.73,1.47,-0.69,0.61,-0.97,-1.70,976.70
14.393,-0.44,1.09,-0.35,1.73,1.47,-0.69,0.61,-0.97,-1.70,976.70
14.396,-0.44,1.09,-0.35,1.73,1.47,-0.69,0.61,-0.97,-1.70,976.71
14.398,-0.48,1.39,-0.29,1.73,1.47,-0.69,0.61,-0.97,-1.70,976.71
14.4,-0.48,1.39,-0.29,1.73,1.47,-0.69,0.68,-1.41,-2.01,976.71
14.402,-0.48,1.39,-0.29,0.87,4.46,0.27,0.68,-1.41,-2.01,976.71
14.415,-0.39,1.67,-0.22,0.87,4.46,0.27,0.68,-1.41,-2.01,976.71
14.433,-0.22,1.72,-0.14,0.87,4.46,0.27,0.68,-1.41,-2.01,976.71
14.435,-0.22,1.72,-0.14,0.87,4.46,0.27,0.79,-2.00,-2.52,976.71
14.435,-0.22,1.72,-0.14,1.81,5.12,-0.03,0.79,-2.00,-2.52,976.71
14.439,-0.22,1.72,-0.14,1.81,5.12,-0.03,0.79,-2.00,-2.52,976.72
14.462,-0.18,1.68,-0.17,1.81,5.12,-0.03,0.79,-2.00,-2.52,976.72
14.472,-0.25,1.91,-0.23,1.81,5.12,-0.03,0.79,-2.00,-2.52,976.72
14.474,-0.25,1.91,-0.23,1.81,5.12,-0.03,0.99,-2.70,-3.22,976.72
14.474,-0.25,1.91,-0.23,5.29,11.01,1.20,0.99,-2.70,-3.22,976.72
14.493,0.01,2.10,-0.50,5.29,11.01,1.20,0.99,-2.70,-3.22,976.72
14.499,0.01,2.10,-0.50,5.29,11.01,1.20,0.99,-2.70,-3.22,976.72
14.513,0.26,1.65,-0.62,5.29,11.01,1.20,0.99,-2.70,-3.22,976.72
14.515,0.26,1.65,-0.62,5.29,11.01,1.20,0.78,-2.76,-2.88,976.72
14.516,0.26,1.65,-0.62,8.65,13.73,-2.15,0.78,-2.76,-2.88,976.72
14.531,0.86,0.51,-0.51,8.65,13.73,-2.15,0.78,-2.76,-2.88,976.72
14.552,0.71,0.03,-0.30,8.65,13.73,-2.15,0.78,-2.76,-2.88,976.72
14.559,0.71,0.03,-0.30,8.65,13.73,-2.15,-0.23,0.03,-0.57,976.72
14.56,0.71,0.03,-0.30,8.61,13.67,-2.14,-0.23,0.03,-0.57,976.72
14.561,0.71,0.03,-0.30,8.61,13.67,-2.14,-0.23,0.03,-0.57,976.71
14.571,-1.01,0.29,-0.99,8.61,13.67,-2.14,-0.23,0.03,-0.57,976.71
14.591,-0.96,0.61,-0.38,8.61,13.67,-2.14,-0.23,0.03,-0.57,976.71
14.591,-0.96,0.61,-0.38,8.61,13.67,-2.14,-1.73,3.05,-0.37,976.71
14.592,-0.96,0.61,-0.38,9.95,-2.14,-2.90,-1.73,3.05,-0.37,976.71
14.61,-0.30,0.62,-0.52,9.95,-2.14,-2.90,-1.73,3.05,-0.37,976.71
14.617,-0.30,0.62,-0.52,9.95,-2.14,-2.90,-1.73,3.05,-0.37,976.71
14.63,-0.70,0.33,-0.67,9.95,-2.14,-2.90,-1.73,3.05,-0.37,976.71
14.631,-0.70,0.33,-0.67,9.95,-2.14,-2.90,-3.09,1.91,2.28,976.71
14.631,-0.70,0.33,-0.67,1.02,-0.83,-2.16,-3.09,1.91,2.28,976.71
14.65,-0.56,0.39,-0.53,1.02,-0.83,-2.16,-3.09,1.91,2.28,976.71
14.67,-0.22,0.57,-0.36,1.02,-0.83,-2.16,-3.09,1.91,2.28,976.71
14.671,-0.22,0.57,-0.36,1.02,-0.83,-2.16,-3.39,0.80,4.02,976.71
14.671,-0.22,0.57,-0.36,-0.12,-2.24,-2.78,-3.39,0.80,4.02,976.71
14.677,-0.22,0.57,-0.36,-0.12,-2.24,-2.78,-3.39,0.80,4.02,976.72
14.69,-0.13,0.67,-0.38,-0.12,-2.24,-2.78,-3.39,0.80,4.02,976.72
14.71,-0.17,0.78,-0.45,-0.12,-2.24,-2.78,-3.39,0.80,4.02,976.72
14.711,-0.17,0.78,-0.45,-0.12,-2.24,-2.78,-3.03,1.22,4.83,976.72
14.712,-0.17,0.78,-0.45,1.64,-3.20,-2.47,-3.03,1.22,4.83,976.72
14.744,-0.24,0.92,-0.44,1.64,-3.20,-2.47,-3.03,1.22,4.83,976.72
14.747,-0.24,0.92,-0.44,1.64,-3.20,-2.47,-3.03,1.22,4.83,976.71
14.783,-0.24,0.92,-0.44,0.53,0.03,-3.60,-3.03,1.22,4.83,976.71
14.785,-0.24,1.18,-0.63,0.53,0.03,-3.60,-3.03,1.22,4.83,976.71
14.786,-0.24,1.18,-0.63,0.53,0.03,-3.60,-2.31,2.84,5.09,976.71
14.786,-0.17,1.39,-0.72,0.53,0.03,-3.60,-2.31,2.84,5.09,976.71
14.79,-0.17,1.41,-0.73,0.53,0.03,-3.60,-2.31,2.84,5.09,976.71
14.79,-0.17,1.41,-0.73,0.53,0.03,-3.60,-1.70,3.56,5.13,976.71
14.791,-0.17,1.41,-0.73,-1.55,-0.36,-3.96,-1.70,3.56,5.13,976.71
14.799,-0.17,1.41,-0.73,-1.55,-0.36,-3.96,-1.70,3.56,5.13,976.70
14.81,-0.20,1.44,-0.81,-1.55,-0.36,-3.96,-1.70,3.56,5.13,976.70
14.848,-0.21,1.36,-0.90,-1.55,-0.36,-3.96,-1.70,3.56,5.13,976.70
14.851,-0.21,1.36,-0.90,-1.55,-0.36,-3.96,-1.08,3.31,4.73,976.70
14.853,-0.21,1.36,-0.90,-3.09,4.05,-6.78,-1.08,3.31,4.73,976.70
14.855,-0.18,1.39,-1.31,-3.09,4.05,-6.78,-1.08,3.31,4.73,976.70
14.857,-0.18,1.39,-1.31,-3.09,4.05,-6.78,-1.08,3.31,4.73,976.67
14.886,-0.62,1.39,-1.03,-3.09,4.05,-6.78,-1.08,3.31,4.73,976.67
14.888,-0.62,1.39,-1.03,-3.09,4.05,-6.78,-0.33,2.28,3.20,976.67
14.889,-0.62,1.39,-1.03,-5.79,3.91,-10.09,-0.33,2.28,3.20,976.67
14.89,-1.47,0.88,-0.70,-5.79,3.91,-10.09,-0.33,2.28,3.20,976.67
14.908,-1.97,0.48,-0.80,-5.79,3.91,-10.09,-0.33,2.28,3.20,976.67
14.911,-1.97,0.48,-0.80,-5.79,3.91,-10.09,-0.01,0.09,0.29,976.67
14.912,-1.97,0.48,-0.80,-5.80,3.87,-9.93,-0.01,0.09,0.29,976.67
14.917,-1.97,0.48,-0.80,-5.80,3.87,-9.93,-0.01,0.09,0.29,976.67
14.927,-1.49,0.64,-0.63,-5.80,3.87,-9.93,-0.01,0.09,0.29,976.67
14.963,-0.51,0.67,-0.44,-5.80,3.87,-9.93,-0.01,0.09,0.29,976.67
14.966,-0.51,0.67,-0.44,-5.80,3.87,-9.93,0.40,-0.92,-0.28,976.67
14.968,-0.51,0.67,-0.44,-18.16,-3.10,-5.97,0.40,-0.92,-0.28,976.67
14.971,-0.53,0.81,-0.31,-18.16,-3.10,-5.97,0.40,-0.92,-0.28,976.67
14.977,-0.53,0.81,-0.31,-18.16,-3.10,-5.97,0.40,-0.92,-0.28,976.70
15.018,-0.11,1.71,1.12,-18.16,-3.10,-5.97,0.40,-0.92,-0.28,976.70
15.022,-0.11,1.71,1.12,-18.16,-3.10,-5.97,0.35,-0.20,-0.46,976.70
15.024,-0.11,1.71,1.12,-5.54,0.75,2.31,0.35,-0.20,-0.46,976.70
15.026,0.38,2.82,0.22,-5.54,0.75,2.31,0.35,-0.20,-0.46,976.70
15.027,0.69,2.21,-1.22,-5.54,0.75,2.31,0.35,-0.20,-0.46,976.70
15.027,0.69,2.21,-1.22,-5.54,0.75,2.31,0.45,-0.50,0.05,976.70
15.028,0.69,2.21,-1.22,-5.44,0.76,2.48,0.45,-0.50,0.05,976.70
15.037,0.69,2.21,-1.22,-5.44,0.76,2.48,0.45,-0.50,0.05,976.73
15.046,-0.94,1.12,-1.12,-5.44,0.76,2.48,0.45,-0.50,0.05,976.73
15.07,-1.04,0.08,-0.42,-5.44,0.76,2.48,0.45,-0.50,0.05,976.73
15.073,-1.04,0.08,-0.42,-5.44,0.76,2.48,1.59,-0.40,-3.21,976.73
15.074,-1.04,0.08,-0.42,-0.04,10.23,-4.95,1.59,-0.40,-3.21,976.73
15.092,-0.13,0.10,-0.61,-0.04,10.23,-4.95,1.59,-0.40,-3.21,976.73
15.101,-0.13,0.10,-0.61,-0.04,10.23,-4.95,1.59,-0.40,-3.21,976.74
15.106,-0.82,1.16,0.07,-0.04,10.23,-4.95,1.59,-0.40,-3.21,976.74
15.107,-0.82,1.16,0.07,-0.04,10.23,-4.95,0.63,0.27,-2.28,976.74
15.107,-0.82,1.16,0.07,-5.95,-5.35,-0.88,0.63,0.27,-2.28,976.74
15.125,-0.48,1.62,-0.46,-5.95,-5.35,-0.88,0.63,0.27,-2.28,976.74
15.149,-0.27,0.95,-0.23,-5.95,-5.35,-0.88,0.63,0.27,-2.28,976.74
15.154,-0.27,0.95,-0.23,-5.95,-5.35,-0.88,0.04,-0.01,-0.59,976.74
15.156,-0.27,0.95,-0.23,-5.62,-5.24,-0.85,0.04,-0.01,-0.59,976.74
15.157,-0.27,0.95,-0.23,-5.62,-5.24,-0.85,0.04,-0.01,-0.59,976.73
15.189,-0.12,0.82,-0.22,-5.62,-5.24,-0.85,0.04,-0.01,-0.59,976.73
15.191,-0.24,1.01,-0.33,-5.62,-5.24,-0.85,0.04,-0.01,-0.59,976.73
15.192,-0.24,1.01,-0.33,-5.62,-5.24,-0.85,0.15,-0.10,-0.31,976.73
15.194,-0.24,1.01,-0.33,-1.84,1.48,-0.67,0.15,-0.10,-0.31,976.73
15.205,-0.48,1.08,-0.29,-1.84,1.48,-0.67,0.15,-0.10,-0.31,976.73
15.218,-0.48,1.08,-0.29,-1.84,1.48,-0.67,0.15,-0.10,-0.31,976.72
15.226,-0.46,1.05,-0.29,-1.84,1.48,-0.67,0.15,-0.10,-0.31,976.72
15.228,-0.46,1.05,-0.29,-1.84,1.48,-0.67,0.08,-0.24,-0.02,976.72
15.229,-0.46,1.05,-0.29,-2.79,0.66,-0.62,0.08,-0.24,-0.02,976.72
15.244,0.08,0.96,-0.22,-2.79,0.66,-0.62,0.08,-0.24,-0.02,976.72
15.265,0.45,0.98,-0.32,-2.79,0.66,-0.62,0.08,-0.24,-0.02,976.72
15.27,0.45,0.98,-0.32,-2.79,0.66,-0.62,0.10,-1.39,0.48,976.72
15.272,0.45,0.98,-0.32,-2.80,0.64,-0.63,0.10,-1.39,0.48,976.72
15.276,0.45,0.98,-0.32,-2.80,0.64,-0.63,0.10,-1.39,0.48,976.73
15.307,0.38,0.95,-0.31,-2.80,0.64,-0.63,0.10,-1.39,0.48,976.73
15.308,-0.03,0.93,-0.27,-2.80,0.64,-0.63,0.10,-1.39,0.48,976.73
15.309,-0.03,0.93,-0.27,-2.80,0.64,-0.63,0.09,-0.72,0.08,976.73
15.309,-0.03,0.93,-0.27,4.02,-0.20,-0.42,0.09,-0.72,0.08,976.73
15.323,-0.12,1.05,-0.12,4.02,-0.20,-0.42,0.09,-0.72,0.08,976.73
15.342,-0.12,1.05,-0.12,4.02,-0.20,-0.42,0.09,-0.72,0.08,976.72
15.344,0.15,1.08,-0.01,4.02,-0.20,-0.42,0.09,-0.72,0.08,976.72
15.345,0.15,1.08,-0.01,4.02,-0.20,-0.42,0.07,-0.09,-0.55,976.72
15.346,0.15,1.08,-0.01,1.19,0.39,1.08,0.07,-0.09,-0.55,976.72
15.362,0.21,1.04,-0.02,1.19,0.39,1.08,0.07,-0.09,-0.55,976.72
15.382,0.02,0.88,-0.22,1.19,0.39,1.08,0.07,-0.09,-0.55,976.72
15.384,0.02,0.88,-0.22,1.19,0.39,1.08,0.07,0.00,-0.93,976.72
15.385,0.02,0.88,-0.22,1.52,0.44,1.09,0.07,0.00,-0.93,976.72
15.396,0.02,0.88,-0.22,1.52,0.44,1.09,0.07,0.00,-0.93,976.71
15.402,-0.09,0.84,-0.35,1.52,0.44,1.09,0.07,0.00,-0.93,976.71
15.423,-0.00,0.91,-0.37,1.52,0.44,1.09,0.07,0.00,-0.93,976.71
15.427,-0.00,0.91,-0.37,2.50,-0.39,0.49,0.07,0.00,-0.93,976.71
15.428,-0.00,0.91,-0.37,2.50,-0.39,0.49,0.05,0.56,-1.55,976.71
15.442,0.29,1.20,-0.34,2.50,-0.39,0.49,0.05,0.56,-1.55,976.71
15.472,0.29,1.20,-0.34,2.50,-0.39,0.49,0.05,0.56,-1.55,976.71
15.476,0.28,1.70,-0.14,2.50,-0.39,0.49,0.05,0.56,-1.55,976.71
15.477,0.28,1.70,-0.14,2.50,-0.39,0.49,-0.09,0.37,-2.15,976.71
15.478,0.28,1.70,-0.14,4.58,3.18,-0.33,-0.09,0.37,-2.15,976.71
15.48,0.00,1.64,-0.18,4.58,3.18,-0.33,-0.09,0.37,-2.15,976.71
15.512,-0.35,1.32,-0.20,4.58,3.18,-0.33,-0.09,0.37,-2.15,976.71
15.514,-0.35,1.32,-0.20,4.58,3.18,-0.33,-0.16,0.89,-2.87,976.71
15.516,-0.35,1.32,-0.20,5.43,3.47,-0.27,-0.16,0.89,-2.87,976.71
15.522,-0.35,1.32,-0.20,5.43,3.47,-0.27,-0.16,0.89,-2.87,976.72
15.526,-0.47,1.08,0.03,5.43,3.47,-0.27,-0.16,0.89,-2.87,976.72
15.539,-0.56,0.94,0.07,5.43,3.47,-0.27,-0.16,0.89,-2.87,976.72
15.541,-0.56,0.94,0.07,5.43,3.47,-0.27,-0.27,1.25,-2.76,976.72
15.542,-0.56,0.94,0.07,1.71,4.51,1.45,-0.27,1.25,-2.76,976.72
15.56,-0.47,0.85,0.03,1.71,4.51,1.45,-0.27,1.25,-2.76,976.72
15.594,-0.47,0.85,0.03,1.71,4.51,1.45,-0.27,1.25,-2.76,976.73
15.595,-0.25,0.68,0.10,1.71,4.51,1.45,-0.27,1.25,-2.76,976.73
15.596,-0.25,0.68,0.10,1.71,4.51,1.45,-0.88,2.06,-2.22,976.73
15.598,-0.25,0.68,0.10,0.73,-0.27,3.29,-0.88,2.06,-2.22,976.73
15.6,0.11,0.58,0.03,0.73,-0.27,3.29,-0.88,2.06,-2.22,976.73
15.619,0.11,0.63,-0.12,0.73,-0.27,3.29,-0.88,2.06,-2.22,976.73
15.621,0.11,0.63,-0.12,0.73,-0.27,3.29,-1.68,2.96,-1.42,976.73
15.621,0.11,0.63,-0.12,0.87,-0.16,3.27,-1.68,2.96,-1.42,976.73
15.635,0.11,0.63,-0.12,0.87,-0.16,3.27,-1.68,2.96,-1.42,976.73
15.639,-0.09,0.76,-0.21,0.87,-0.16,3.27,-1.68,2.96,-1.42,976.73
15.666,-0.04,0.81,-0.27,0.87,-0.16,3.27,-1.68,2.96,-1.42,976.73
15.669,-0.04,0.81,-0.27,0.87,-0.16,3.27,-2.47,3.98,-0.43,976.73
15.671,-0.04,0.81,-0.27,5.14,-1.95,1.55,-2.47,3.98,-0.43,976.73
15.678,-0.00,0.88,-0.30,5.14,-1.95,1.55,-2.47,3.98,-0.43,976.73
15.711,-0.00,0.88,-0.30,5.14,-1.95,1.55,-2.47,3.98,-0.43,976.74
15.712,0.08,0.99,-0.34,5.14,-1.95,1.55,-2.47,3.98,-0.43,976.74
15.713,0.08,0.99,-0.34,5.14,-1.95,1.55,-3.16,4.60,0.29,976.74
15.713,0.08,0.99,-0.34,4.21,0.06,-0.68,-3.16,4.60,0.29,976.74
15.719,0.24,1.06,-0.42,4.21,0.06,-0.68,-3.16,4.60,0.29,976.74
15.737,0.25,1.05,-0.54,4.21,0.06,-0.68,-3.16,4.60,0.29,976.74
15.738,0.25,1.05,-0.54,4.21,0.06,-0.68,-3.38,5.67,0.55,976.74
15.739,0.25,1.05,-0.54,3.49,-0.30,-1.01,-3.38,5.67,0.55,976.74
15.761,0.25,1.05,-0.54,3.49,-0.30,-1.01,-3.38,5.67,0.55,976.73
15.763,0.15,0.99,-0.74,3.49,-0.30,-1.01,-3.38,5.67,0.55,976.73
15.783,0.03,0.92,-0.92,3.49,-0.30,-1.01,-3.38,5.67,0.55,976.73
15.785,0.03,0.92,-0.92,3.49,-0.30,-1.01,-2.97,7.42,0.11,976.73
15.786,0.03,0.92,-0.92,4.81,0.80,-3.76,-2.97,7.42,0.11,976.73
15.796,-0.26,0.86,-1.13,4.81,0.80,-3.76,-2.97,7.42,0.11,976.73
15.814,-0.26,0.86,-1.13,4.81,0.80,-3.76,-2.97,7.42,0.11,976.72
15.818,-0.26,0.86,-1.13,-1.43,-1.06,-9.00,-2.97,7.42,0.11,976.72
15.821,-0.94,0.78,-1.30,-1.43,-1.06,-9.00,-2.97,7.42,0.11,976.72
15.822,-0.94,0.78,-1.30,-1.43,-1.06,-9.00,-2.16,7.72,-0.57,976.72
15.838,-0.88,0.54,-1.28,-1.43,-1.06,-9.00,-2.16,7.72,-0.57,976.72
15.873,-0.37,0.47,-1.37,-1.43,-1.06,-9.00,-2.16,7.72,-0.57,976.72
15.877,-0.37,0.47,-1.37,-1.43,-1.06,-9.00,-1.16,5.42,-0.74,976.72
15.878,-0.37,0.47,-1.37,-1.55,-1.06,-8.79,-1.16,5.42,-0.74,976.72
15.88,-0.37,0.47,-1.37,-1.55,-1.06,-8.79,-1.16,5.42,-0.74,976.71
15.881,-0.39,0.68,-1.67,-1.55,-1.06,-8.79,-1.16,5.42,-0.74,976.71
15.914,-0.33,0.84,-1.37,-1.55,-1.06,-8.79,-1.16,5.42,-0.74,976.71
15.916,-0.33,0.84,-1.37,-1.55,-1.06,-8.79,-0.21,1.90,-0.17,976.71
15.917,-0.33,0.84,-1.37,-3.13,-3.83,-11.65,-0.21,1.90,-0.17,976.71
15.919,0.30,0.85,-1.27,-3.13,-3.83,-11.65,-0.21,1.90,-0.17,976.71
15.936,0.30,0.85,-1.27,-3.13,-3.83,-11.65,-0.21,1.90,-0.17,976.71
15.938,0.33,1.23,0.25,-3.13,-3.83,-11.65,-0.21,1.90,-0.17,976.71
15.94,0.33,1.23,0.25,-3.13,-3.83,-11.65,0.21,-0.60,0.70,976.71
15.942,0.33,1.23,0.25,2.92,0.13,-5.25,0.21,-0.60,0.70,976.71
15.955,-0.12,1.66,1.29,2.92,0.13,-5.25,0.21,-0.60,0.70,976.71
15.981,-0.19,1.18,-0.06,2.92,0.13,-5.25,0.21,-0.60,0.70,976.71
15.984,-0.19,1.18,-0.06,2.92,0.13,-5.25,-0.05,0.47,0.15,976.71
15.985,-0.19,1.18,-0.06,2.77,0.11,-5.15,-0.05,0.47,0.15,976.71
15.994,-0.19,1.18,-0.06,2.77,0.11,-5.15,-0.05,0.47,0.15,976.70
15.997,-0.73,0.82,-0.79,2.77,0.11,-5.15,-0.05,0.47,0.15,976.70
16.013,-0.72,0.80,-0.72,2.77,0.11,-5.15,-0.05,0.47,0.15,976.70
16.015,-0.72,0.80,-0.72,2.77,0.11,-5.15,-0.00,2.03,-0.59,976.70
16.016,-0.72,0.80,-0.72,-1.55,2.54,4.19,-0.00,2.03,-0.59,976.70
16.041,-0.37,0.86,-0.42,-1.55,2.54,4.19,-0.00,2.03,-0.59,976.70
16.061,-0.04,1.04,-0.16,-1.55,2.54,4.19,-0.00,2.03,-0.59,976.70
16.062,-0.04,1.04,-0.16,-1.55,2.54,4.19,-0.23,0.43,0.17,976.70
16.063,-0.04,1.04,-0.16,-1.92,-0.62,-1.54,-0.23,0.43,0.17,976.70
16.064,-0.04,1.04,-0.16,-1.92,-0.62,-1.54,-0.23,0.43,0.17,976.71
16.072,-0.10,1.06,-0.10,-1.92,-0.62,-1.54,-0.23,0.43,0.17,976.71
16.093,-0.24,0.95,-0.30,-1.92,-0.62,-1.54,-0.23,0.43,0.17,976.71
16.094,-0.24,0.95,-0.30,-1.92,-0.62,-1.54,-0.32,0.53,0.32,976.71
16.094,-0.24,0.95,-0.30,-2.06,-0.66,-1.60,-0.32,0.53,0.32,976.71
