time,gFx,gFy,gFz,ax,ay,az,wx,wy,wz,P
0.003,-0.01,0.97,-0.26,0.15,0.12,-0.05,0.14,-0.10,0.08,976.72
0.016,-0.04,0.99,-0.23,0.15,0.12,-0.05,0.14,-0.10,0.08,976.72
0.017,-0.04,0.99,-0.23,0.15,0.12,-0.05,0.07,0.05,0.02,976.72
0.017,-0.04,0.99,-0.23,0.24,0.01,-0.38,0.07,0.05,0.02,976.72
0.033,-0.02,0.98,-0.25,0.24,0.01,-0.38,0.07,0.05,0.02,976.72
0.036,-0.02,0.98,-0.25,0.24,0.01,-0.38,0.07,0.05,0.02,976.72
0.053,-0.00,0.98,-0.25,0.24,0.01,-0.38,0.07,0.05,0.02,976.72
0.053,-0.00,0.98,-0.25,0.24,0.01,-0.38,0.04,-0.02,0.02,976.72
0.054,-0.00,0.98,-0.25,-0.06,0.03,-0.20,0.04,-0.02,0.02,976.72
0.072,-0.00,0.99,-0.26,-0.06,0.03,-0.20,0.04,-0.02,0.02,976.72
0.094,-0.02,0.98,-0.24,-0.06,0.03,-0.20,0.04,-0.02,0.02,976.72
0.095,-0.02,0.98,-0.24,-0.06,0.03,-0.20,0.02,-0.08,0.03,976.72
0.096,-0.02,0.98,-0.24,-0.06,0.03,-0.19,0.02,-0.08,0.03,976.72
0.1,-0.02,0.98,-0.24,-0.06,0.03,-0.19,0.02,-0.08,0.03,976.71
0.113,-0.05,0.98,-0.24,-0.06,0.03,-0.19,0.02,-0.08,0.03,976.71
0.136,-0.04,0.97,-0.23,-0.06,0.03,-0.19,0.02,-0.08,0.03,976.71
0.137,-0.04,0.97,-0.23,-0.06,0.03,-0.19,-0.02,-0.04,0.03,976.71
0.138,-0.04,0.97,-0.23,-0.10,0.00,-0.20,-0.02,-0.04,0.03,976.71
0.153,-0.03,0.99,-0.23,-0.10,0.00,-0.20,-0.02,-0.04,0.03,976.71
0.157,-0.03,0.99,-0.23,-0.10,0.00,-0.20,-0.02,-0.04,0.03,976.69
0.179,-0.02,0.98,-0.24,-0.10,0.00,-0.20,-0.02,-0.04,0.03,976.69
0.181,-0.02,0.98,-0.24,-0.10,0.00,-0.20,-0.02,-0.08,0.08,976.69
0.182,-0.02,0.98,-0.24,-0.15,0.02,-0.12,-0.02,-0.08,0.08,976.69
0.192,0.01,0.99,-0.22,-0.15,0.02,-0.12,-0.02,-0.08,0.08,976.69
0.224,-0.01,0.98,-0.22,-0.15,0.02,-0.12,-0.02,-0.08,0.08,976.69
0.225,-0.01,0.98,-0.22,-0.15,0.02,-0.12,-0.03,-0.05,0.10,976.69
0.226,-0.01,0.98,-0.22,-0.18,0.01,-0.13,-0.03,-0.05,0.10,976.69
0.227,-0.01,0.98,-0.22,-0.18,0.01,-0.13,-0.03,-0.05,0.10,976.68
0.236,-0.01,0.97,-0.22,-0.18,0.01,-0.13,-0.03,-0.05,0.10,976.68
0.251,0.01,0.98,-0.22,-0.18,0.01,-0.13,-0.03,-0.05,0.10,976.68
0.251,0.01,0.98,-0.22,-0.18,0.01,-0.13,-0.03,0.02,0.09,976.68
0.252,0.01,0.98,-0.22,0.05,-0.04,-0.01,-0.03,0.02,0.09,976.68
0.271,0.03,1.00,-0.24,0.05,-0.04,-0.01,-0.03,0.02,0.09,976.68
0.276,0.03,1.00,-0.24,0.05,-0.04,-0.01,-0.03,0.02,0.09,976.70
0.292,0.03,1.00,-0.24,0.20,0.07,-0.12,-0.03,0.02,0.09,976.70
0.294,0.01,0.99,-0.24,0.20,0.07,-0.12,-0.03,0.02,0.09,976.70
0.295,0.01,0.99,-0.24,0.20,0.07,-0.12,-0.02,0.04,0.08,976.70
0.312,0.01,0.98,-0.23,0.20,0.07,-0.12,-0.02,0.04,0.08,976.70
0.357,0.01,0.98,-0.23,0.17,0.07,-0.13,-0.02,0.04,0.08,976.70
0.362,0.02,0.99,-0.23,0.17,0.07,-0.13,-0.02,0.04,0.08,976.70
0.364,0.02,0.99,-0.23,0.17,0.07,-0.13,-0.04,0.06,0.04,976.70
0.367,0.02,0.99,-0.23,0.17,0.07,-0.13,-0.04,0.06,0.04,976.70
0.373,0.02,0.98,-0.23,0.17,0.07,-0.13,-0.04,0.06,0.04,976.70
0.375,0.02,0.98,-0.23,0.15,0.00,-0.12,-0.04,0.06,0.04,976.70
0.379,0.02,0.98,-0.23,0.15,0.00,-0.12,-0.04,0.06,0.04,976.70
0.382,0.02,0.98,-0.23,0.15,0.00,-0.12,-0.05,0.04,0.01,976.70
0.394,0.02,0.99,-0.24,0.15,0.00,-0.12,-0.05,0.04,0.01,976.70
0.395,0.02,0.99,-0.24,0.15,0.00,-0.12,-0.05,0.04,0.01,976.70
0.409,0.02,1.00,-0.24,0.15,0.00,-0.12,-0.05,0.04,0.01,976.70
0.411,0.02,1.00,-0.24,0.15,0.00,-0.12,-0.04,-0.01,-0.03,976.70
0.413,0.02,1.00,-0.24,0.17,0.02,-0.17,-0.04,-0.01,-0.03,976.70
0.437,-0.02,0.98,-0.23,0.17,0.02,-0.17,-0.04,-0.01,-0.03,976.70
0.448,-0.02,0.97,-0.22,0.17,0.02,-0.17,-0.04,-0.01,-0.03,976.70
0.449,-0.02,0.97,-0.22,0.17,0.02,-0.17,-0.07,0.05,-0.05,976.70
0.45,-0.02,0.97,-0.22,0.18,0.02,-0.19,-0.07,0.05,-0.05,976.70
0.455,-0.02,0.97,-0.22,0.18,0.02,-0.19,-0.07,0.05,-0.05,976.69
0.468,-0.01,0.97,-0.23,0.18,0.02,-0.19,-0.07,0.05,-0.05,976.69
0.488,0.00,0.98,-0.22,0.18,0.02,-0.19,-0.07,0.05,-0.05,976.69
0.49,0.00,0.98,-0.22,0.18,0.02,-0.19,-0.07,-0.04,-0.02,976.69
0.491,0.00,0.98,-0.22,-0.15,-0.12,-0.17,-0.07,-0.04,-0.02,976.69
0.507,0.01,1.00,-0.21,-0.15,-0.12,-0.17,-0.07,-0.04,-0.02,976.69
0.522,0.01,1.00,-0.21,-0.15,-0.12,-0.17,-0.07,-0.04,-0.02,976.70
0.527,-0.01,0.98,-0.20,-0.15,-0.12,-0.17,-0.07,-0.04,-0.02,976.70
0.528,-0.01,0.98,-0.20,-0.15,-0.12,-0.17,-0.06,-0.09,-0.01,976.70
0.528,-0.01,0.98,-0.20,0.01,0.00,-0.03,-0.06,-0.09,-0.01,976.70
0.574,0.00,0.98,-0.22,0.01,0.00,-0.03,-0.06,-0.09,-0.01,976.70
0.575,0.01,0.99,-0.22,0.01,0.00,-0.03,-0.06,-0.09,-0.01,976.70
0.575,0.01,0.99,-0.22,0.01,0.00,-0.03,-0.06,-0.02,-0.01,976.70
0.576,0.01,0.99,-0.22,0.02,0.00,-0.05,-0.06,-0.02,-0.01,976.70
0.577,0.01,0.99,-0.22,0.02,0.00,-0.05,-0.06,-0.02,-0.01,976.69
0.586,-0.03,0.99,-0.21,0.02,0.00,-0.05,-0.06,-0.02,-0.01,976.69
0.607,-0.02,1.00,-0.21,0.02,0.00,-0.05,-0.06,-0.02,-0.01,976.69
0.608,-0.02,1.00,-0.21,0.02,0.00,-0.05,-0.06,0.02,-0.01,976.69
0.608,-0.02,1.00,-0.21,-0.03,0.01,-0.10,-0.06,0.02,-0.01,976.69
0.627,0.02,1.01,-0.21,-0.03,0.01,-0.10,-0.06,0.02,-0.01,976.69
0.636,0.02,1.01,-0.21,-0.03,0.01,-0.10,-0.06,0.02,-0.01,976.69
0.664,0.02,1.03,-0.21,-0.03,0.01,-0.10,-0.06,0.02,-0.01,976.69
0.665,0.02,1.03,-0.21,-0.03,0.01,-0.10,-0.06,-0.03,-0.01,976.69
0.666,0.02,1.03,-0.21,0.11,0.25,-0.10,-0.06,-0.03,-0.01,976.69
0.667,0.05,1.01,-0.25,0.11,0.25,-0.10,-0.06,-0.03,-0.01,976.69
0.685,0.14,1.08,-0.26,0.11,0.25,-0.10,-0.06,-0.03,-0.01,976.69
0.687,0.14,1.08,-0.26,0.11,0.25,-0.10,-0.12,0.10,-0.10,976.69
0.687,0.14,1.08,-0.26,0.14,0.23,-0.15,-0.12,0.10,-0.10,976.69
0.695,0.14,1.08,-0.26,0.14,0.23,-0.15,-0.12,0.10,-0.10,976.69
0.705,0.13,1.04,-0.34,0.14,0.23,-0.15,-0.12,0.10,-0.10,976.69
0.726,0.06,1.05,-0.39,0.14,0.23,-0.15,-0.12,0.10,-0.10,976.69
0.728,0.06,1.05,-0.39,0.14,0.23,-0.15,-0.26,0.33,-0.36,976.69
0.728,0.06,1.05,-0.39,1.20,0.51,-0.90,-0.26,0.33,-0.36,976.69
0.746,0.19,1.14,-0.41,1.20,0.51,-0.90,-0.26,0.33,-0.36,976.69
0.755,0.19,1.14,-0.41,1.20,0.51,-0.90,-0.26,0.33,-0.36,976.70
0.765,0.37,1.19,-0.35,1.20,0.51,-0.90,-0.26,0.33,-0.36,976.70
0.767,0.37,1.19,-0.35,1.20,0.51,-0.90,-0.51,0.25,-0.73,976.70
0.767,0.37,1.19,-0.35,2.43,1.31,-2.05,-0.51,0.25,-0.73,976.70
0.784,0.40,1.30,-0.28,2.43,1.31,-2.05,-0.51,0.25,-0.73,976.70
0.808,0.40,1.30,-0.28,2.86,1.27,-2.35,-0.51,0.25,-0.73,976.70
0.811,0.34,1.31,-0.38,2.86,1.27,-2.35,-0.51,0.25,-0.73,976.70
0.812,0.34,1.31,-0.38,2.86,1.27,-2.35,-0.97,1.43,-1.46,976.70
0.824,0.34,1.31,-0.38,2.86,1.27,-2.35,-0.97,1.43,-1.46,976.70
0.825,0.05,1.17,-0.43,2.86,1.27,-2.35,-0.97,1.43,-1.46,976.70
0.844,-0.33,1.14,-0.51,2.86,1.27,-2.35,-0.97,1.43,-1.46,976.70
0.846,-0.33,1.14,-0.51,2.86,1.27,-2.35,-1.09,3.66,-2.28,976.70
0.847,-0.33,1.14,-0.51,4.01,2.54,-2.38,-1.09,3.66,-2.28,976.70
0.864,-0.45,1.28,-0.54,4.01,2.54,-2.38,-1.09,3.66,-2.28,976.70
0.874,-0.45,1.28,-0.54,4.01,2.54,-2.38,-1.09,3.66,-2.28,976.71
0.883,-0.30,1.26,-0.55,4.01,2.54,-2.38,-1.09,3.66,-2.28,976.71
0.884,-0.30,1.26,-0.55,4.01,2.54,-2.38,-0.55,2.57,-2.06,976.71
0.885,-0.30,1.26,-0.55,-1.37,2.30,-4.02,-0.55,2.57,-2.06,976.71
0.903,-0.07,1.31,-0.45,-1.37,2.30,-4.02,-0.55,2.57,-2.06,976.71
0.924,-0.01,1.28,-0.43,-1.37,2.30,-4.02,-0.55,2.57,-2.06,976.71
0.927,-0.01,1.28,-0.43,-1.37,2.30,-4.02,-0.30,0.03,-1.63,976.71
0.929,-0.01,1.28,-0.43,-0.74,2.40,-4.06,-0.30,0.03,-1.63,976.71
0.94,-0.01,1.28,-0.43,-0.74,2.40,-4.06,-0.30,0.03,-1.63,976.71
0.943,-0.12,1.31,-0.30,-0.74,2.40,-4.06,-0.30,0.03,-1.63,976.71
0.967,-0.19,1.27,-0.22,-0.74,2.40,-4.06,-0.30,0.03,-1.63,976.71
0.969,-0.19,1.27,-0.22,-0.74,2.40,-4.06,-0.49,-0.31,-1.58,976.71
0.97,-0.19,1.27,-0.22,2.69,3.24,-2.86,-0.49,-0.31,-1.58,976.71
0.983,-0.15,1.18,-0.23,2.69,3.24,-2.86,-0.49,-0.31,-1.58,976.71
0.995,-0.15,1.18,-0.23,2.69,3.24,-2.86,-0.49,-0.31,-1.58,976.70
1.003,-0.15,1.18,-0.23,2.01,2.25,-1.44,-0.49,-0.31,-1.58,976.70
1.007,-0.21,1.11,-0.24,2.01,2.25,-1.44,-0.49,-0.31,-1.58,976.70
1.009,-0.21,1.11,-0.24,2.01,2.25,-1.44,-0.73,0.51,-1.39,976.70
1.023,-0.27,1.05,-0.27,2.01,2.25,-1.44,-0.73,0.51,-1.39,976.70
1.053,-0.25,0.93,-0.26,2.01,2.25,-1.44,-0.73,0.51,-1.39,976.70
1.055,-0.25,0.93,-0.26,2.01,2.25,-1.44,-0.88,1.33,-1.02,976.70
1.056,-0.25,0.93,-0.26,2.31,2.35,-1.53,-0.88,1.33,-1.02,976.70
1.057,-0.25,0.93,-0.26,2.31,2.35,-1.53,-0.88,1.33,-1.02,976.69
1.062,-0.33,0.81,-0.26,2.31,2.35,-1.53,-0.88,1.33,-1.02,976.69
1.083,-0.42,0.70,-0.27,2.31,2.35,-1.53,-0.88,1.33,-1.02,976.69
1.086,-0.42,0.70,-0.27,2.31,2.35,-1.53,-0.93,1.85,-0.59,976.69
1.087,-0.42,0.70,-0.27,1.43,-0.10,-1.84,-0.93,1.85,-0.59,976.69
1.102,-0.38,0.62,-0.24,1.43,-0.10,-1.84,-0.93,1.85,-0.59,976.69
1.115,-0.38,0.62,-0.24,1.43,-0.10,-1.84,-0.93,1.85,-0.59,976.68
1.121,-0.38,0.62,-0.24,0.39,-3.08,-1.57,-0.93,1.85,-0.59,976.68
1.122,-0.37,0.54,-0.21,0.39,-3.08,-1.57,-0.93,1.85,-0.59,976.68
1.122,-0.37,0.54,-0.21,0.39,-3.08,-1.57,-0.90,1.99,-0.11,976.68
1.151,-0.35,0.49,-0.18,0.39,-3.08,-1.57,-0.90,1.99,-0.11,976.68
1.16,-0.27,0.45,-0.13,0.39,-3.08,-1.57,-0.90,1.99,-0.11,976.68
1.161,-0.27,0.45,-0.13,0.39,-3.08,-1.57,-0.78,2.06,0.32,976.68
1.162,-0.27,0.45,-0.13,0.21,-3.10,-1.49,-0.78,2.06,0.32,976.68
1.19,-0.27,0.45,-0.13,0.21,-3.10,-1.49,-0.78,2.06,0.32,976.67
1.193,-0.27,0.38,-0.12,0.21,-3.10,-1.49,-0.78,2.06,0.32,976.67
1.202,-0.33,0.39,-0.14,0.21,-3.10,-1.49,-0.78,2.06,0.32,976.67
1.205,-0.33,0.39,-0.14,0.21,-3.10,-1.49,-0.61,2.48,0.62,976.67
1.206,-0.33,0.39,-0.14,0.81,-4.92,-0.38,-0.61,2.48,0.62,976.67
1.22,-0.39,0.42,-0.13,0.81,-4.92,-0.38,-0.61,2.48,0.62,976.67
1.246,-0.39,0.42,-0.13,0.81,-4.92,-0.38,-0.61,2.48,0.62,976.66
1.247,-0.45,0.46,-0.11,0.81,-4.92,-0.38,-0.61,2.48,0.62,976.66
1.248,-0.45,0.46,-0.11,0.81,-4.92,-0.38,-0.49,2.84,0.89,976.66
1.25,-0.45,0.46,-0.11,-0.56,-5.11,-0.01,-0.49,2.84,0.89,976.66
1.285,-0.45,0.52,-0.08,-0.56,-5.11,-0.01,-0.49,2.84,0.89,976.66
1.287,-0.47,0.56,-0.08,-0.56,-5.11,-0.01,-0.49,2.84,0.89,976.66
1.288,-0.47,0.56,-0.08,-0.56,-5.11,-0.01,-0.46,2.52,1.13,976.66
1.288,-0.47,0.56,-0.08,-1.08,-5.18,0.11,-0.46,2.52,1.13,976.66
1.294,-0.47,0.56,-0.08,-1.08,-5.18,0.11,-0.46,2.52,1.13,976.66
1.301,-0.51,0.63,-0.05,-1.08,-5.18,0.11,-0.46,2.52,1.13,976.66
1.32,-0.46,0.70,-0.03,-1.08,-5.18,0.11,-0.46,2.52,1.13,976.66
1.322,-0.46,0.70,-0.03,-1.08,-5.18,0.11,-0.58,2.22,1.08,976.66
1.323,-0.46,0.70,-0.03,-2.40,-3.83,0.65,-0.58,2.22,1.08,976.66
1.349,-0.57,0.75,-0.05,-2.40,-3.83,0.65,-0.58,2.22,1.08,976.66
1.354,-0.57,0.75,-0.05,-2.40,-3.83,0.65,-0.58,2.22,1.08,976.67
1.357,-0.62,0.81,-0.06,-2.40,-3.83,0.65,-0.58,2.22,1.08,976.67
1.358,-0.62,0.81,-0.06,-2.40,-3.83,0.65,-0.74,2.12,0.81,976.67
1.359,-0.62,0.81,-0.06,-3.50,-2.11,0.81,-0.74,2.12,0.81,976.67
1.389,-0.62,0.84,-0.06,-3.50,-2.11,0.81,-0.74,2.12,0.81,976.67
1.398,-0.77,0.84,-0.09,-3.50,-2.11,0.81,-0.74,2.12,0.81,976.67
1.399,-0.77,0.84,-0.09,-3.50,-2.11,0.81,-0.77,1.97,0.37,976.67
1.401,-0.77,0.84,-0.09,-3.67,-2.14,0.65,-0.77,1.97,0.37,976.67
1.414,-0.77,0.84,-0.09,-3.67,-2.14,0.65,-0.77,1.97,0.37,976.67
1.438,-0.78,0.90,-0.13,-3.67,-2.14,0.65,-0.77,1.97,0.37,976.67
1.441,-0.65,0.87,-0.12,-3.67,-2.14,0.65,-0.77,1.97,0.37,976.67
1.443,-0.65,0.87,-0.12,-3.67,-2.14,0.65,-0.61,1.58,-0.19,976.67
1.444,-0.65,0.87,-0.12,-5.26,-1.04,0.03,-0.61,1.58,-0.19,976.67
1.471,-0.61,0.81,-0.13,-5.26,-1.04,0.03,-0.61,1.58,-0.19,976.67
1.474,-0.61,0.81,-0.13,-5.26,-1.04,0.03,-0.61,1.58,-0.19,976.68
1.475,-0.57,1.35,0.07,-5.26,-1.04,0.03,-0.61,1.58,-0.19,976.68
1.476,-0.57,1.35,0.07,-5.26,-1.04,0.03,-0.30,1.00,-0.57,976.68
1.476,-0.57,1.35,0.07,-3.92,0.42,0.33,-0.30,1.00,-0.57,976.68
1.495,-0.44,2.17,-0.01,-3.92,0.42,0.33,-0.30,1.00,-0.57,976.68
1.533,-0.83,1.26,-0.23,-3.92,0.42,0.33,-0.30,1.00,-0.57,976.68
1.536,-0.83,1.26,-0.23,-3.92,0.42,0.33,-0.12,0.75,-0.88,976.68
1.537,-0.83,1.26,-0.23,-3.56,0.49,0.35,-0.12,0.75,-0.88,976.68
1.538,-0.83,1.26,-0.23,-3.56,0.49,0.35,-0.12,0.75,-0.88,976.68
1.538,-0.52,-0.27,0.16,-3.56,0.49,0.35,-0.12,0.75,-0.88,976.68
1.564,-0.24,0.64,0.18,-3.56,0.49,0.35,-0.12,0.75,-0.88,976.68
1.566,-0.24,0.64,0.18,-2.95,1.03,0.77,-0.12,0.75,-0.88,976.68
1.567,-0.24,0.64,0.18,-2.95,1.03,0.77,0.38,-0.07,-1.18,976.68
1.575,-0.74,1.56,-0.09,-2.95,1.03,0.77,0.38,-0.07,-1.18,976.68
1.594,-0.74,1.56,-0.09,-2.95,1.03,0.77,0.38,-0.07,-1.18,976.68
1.595,-0.60,0.79,-0.18,-2.95,1.03,0.77,0.38,-0.07,-1.18,976.68
1.596,-0.60,0.79,-0.18,-2.95,1.03,0.77,0.37,0.28,-0.82,976.68
1.596,-0.60,0.79,-0.18,-1.90,0.57,0.90,0.37,0.28,-0.82,976.68
1.616,-0.53,0.84,-0.16,-1.90,0.57,0.90,0.37,0.28,-0.82,976.68
1.639,-0.56,1.01,-0.29,-1.90,0.57,0.90,0.37,0.28,-0.82,976.68
1.642,-0.56,1.01,-0.29,-1.90,0.57,0.90,0.32,0.96,-0.52,976.68
1.643,-0.56,1.01,-0.29,-1.73,0.65,1.12,0.32,0.96,-0.52,976.68
1.668,-0.56,1.01,-0.29,-1.73,0.65,1.12,0.32,0.96,-0.52,976.67
1.671,-0.44,0.91,-0.16,-1.73,0.65,1.12,0.32,0.96,-0.52,976.67
1.673,-0.48,0.99,-0.14,-1.73,0.65,1.12,0.32,0.96,-0.52,976.67
1.674,-0.48,0.99,-0.14,-1.73,0.65,1.12,0.30,0.34,-0.23,976.67
1.674,-0.48,0.99,-0.14,-1.48,-0.05,-0.44,0.30,0.34,-0.23,976.67
1.693,-0.51,0.93,-0.20,-1.48,-0.05,-0.44,0.30,0.34,-0.23,976.67
1.713,-0.51,0.93,-0.20,-1.48,-0.05,-0.44,0.30,0.34,-0.23,976.68
1.716,-0.51,0.93,-0.20,-1.17,0.21,-0.23,0.30,0.34,-0.23,976.68
1.718,-0.46,0.91,-0.24,-1.17,0.21,-0.23,0.30,0.34,-0.23,976.68
1.72,-0.46,0.91,-0.24,-1.17,0.21,-0.23,0.28,0.04,-0.11,976.68
1.737,-0.35,0.93,-0.16,-1.17,0.21,-0.23,0.28,0.04,-0.11,976.68
1.762,-0.42,0.92,-0.19,-1.17,0.21,-0.23,0.28,0.04,-0.11,976.68
1.764,-0.42,0.92,-0.19,-1.17,0.21,-0.23,0.24,0.08,-0.01,976.68
1.765,-0.42,0.92,-0.19,-1.15,0.22,-0.13,0.24,0.08,-0.01,976.68
1.773,-0.42,0.92,-0.19,-1.15,0.22,-0.13,0.24,0.08,-0.01,976.70
1.775,-0.60,0.89,-0.23,-1.15,0.22,-0.13,0.24,0.08,-0.01,976.70
1.793,-0.58,0.90,-0.19,-1.15,0.22,-0.13,0.24,0.08,-0.01,976.70
1.796,-0.58,0.90,-0.19,-1.15,0.22,-0.13,0.21,0.32,0.05,976.70
1.797,-0.58,0.90,-0.19,-0.90,-0.03,0.01,0.21,0.32,0.05,976.70
1.812,-0.40,0.93,-0.15,-0.90,-0.03,0.01,0.21,0.32,0.05,976.70
1.857,-0.31,0.91,-0.19,-0.90,-0.03,0.01,0.21,0.32,0.05,976.70
1.861,-0.31,0.91,-0.19,-0.90,-0.03,0.01,0.25,-0.14,0.32,976.70
1.863,-0.31,0.91,-0.19,-0.90,-0.03,0.01,0.25,-0.14,0.32,976.71
1.865,-0.31,0.91,-0.19,-0.76,-0.09,0.21,0.25,-0.14,0.32,976.71
1.867,-0.34,0.92,-0.19,-0.76,-0.09,0.21,0.25,-0.14,0.32,976.71
1.911,-0.39,0.94,-0.23,-0.76,-0.09,0.21,0.25,-0.14,0.32,976.71
1.914,-0.39,0.94,-0.23,-0.76,-0.09,0.21,0.26,-0.03,0.35,976.71
1.916,-0.39,0.94,-0.23,-0.87,-0.11,0.29,0.26,-0.03,0.35,976.71
1.918,-0.41,0.91,-0.25,-0.87,-0.11,0.29,0.26,-0.03,0.35,976.71
1.921,-0.41,0.91,-0.25,-0.87,-0.11,0.29,0.26,-0.03,0.35,976.72
1.922,-0.41,0.93,-0.20,-0.87,-0.11,0.29,0.26,-0.03,0.35,976.72
1.924,-0.41,0.93,-0.20,-0.49,-0.04,-0.04,0.26,-0.03,0.35,976.72
1.925,-0.41,0.93,-0.20,-0.49,-0.04,-0.04,0.23,0.21,0.31,976.72
1.931,-0.29,0.95,-0.22,-0.49,-0.04,-0.04,0.23,0.21,0.31,976.72
1.953,-0.26,0.93,-0.25,-0.49,-0.04,-0.04,0.23,0.21,0.31,976.72
1.956,-0.26,0.93,-0.25,-0.49,-0.04,-0.04,0.23,-0.12,0.35,976.72
1.957,-0.26,0.93,-0.25,-0.49,-0.04,-0.04,0.23,-0.12,0.35,976.71
1.959,-0.26,0.93,-0.25,-0.03,0.09,0.02,0.23,-0.12,0.35,976.71
1.977,-0.23,0.94,-0.23,-0.03,0.09,0.02,0.23,-0.12,0.35,976.71
1.989,-0.17,0.97,-0.29,-0.03,0.09,0.02,0.23,-0.12,0.35,976.71
1.991,-0.17,0.97,-0.29,-0.03,0.09,0.02,0.22,-0.18,0.21,976.71
1.992,-0.17,0.97,-0.29,-0.09,0.08,0.07,0.22,-0.18,0.21,976.71
2.009,-0.26,0.90,-0.31,-0.09,0.08,0.07,0.22,-0.18,0.21,976.71
2.011,-0.26,0.90,-0.31,-0.09,0.08,0.07,0.22,-0.18,0.21,976.72
2.028,-0.29,0.95,-0.22,-0.09,0.08,0.07,0.22,-0.18,0.21,976.72
2.029,-0.29,0.95,-0.22,-0.09,0.08,0.07,0.16,-0.07,-0.05,976.72
2.03,-0.29,0.95,-0.22,0.89,0.09,-0.35,0.16,-0.07,-0.05,976.72
2.05,-0.14,0.95,-0.27,0.89,0.09,-0.35,0.16,-0.07,-0.05,976.72
2.074,-0.20,0.91,-0.28,0.89,0.09,-0.35,0.16,-0.07,-0.05,976.72
2.075,-0.20,0.91,-0.28,0.89,0.09,-0.35,0.13,-0.24,-0.28,976.72
2.076,-0.20,0.91,-0.28,1.15,0.15,-0.14,0.13,-0.24,-0.28,976.72
2.077,-0.20,0.91,-0.28,1.15,0.15,-0.14,0.13,-0.24,-0.28,976.71
2.088,-0.16,0.96,-0.37,1.15,0.15,-0.14,0.13,-0.24,-0.28,976.71
2.108,-0.31,1.01,-0.35,1.15,0.15,-0.14,0.13,-0.24,-0.28,976.71
2.109,-0.31,1.01,-0.35,1.15,0.15,-0.14,0.06,0.04,-0.59,976.71
2.11,-0.31,1.01,-0.35,1.33,0.23,-0.11,0.06,0.04,-0.59,976.71
2.128,-0.61,0.95,-0.28,1.33,0.23,-0.11,0.06,0.04,-0.59,976.71
2.132,-0.61,0.95,-0.28,1.33,0.23,-0.11,0.06,0.04,-0.59,976.72
2.154,-0.75,1.03,-0.26,1.33,0.23,-0.11,0.06,0.04,-0.59,976.72
2.156,-0.75,1.03,-0.26,1.33,0.23,-0.11,-0.13,0.37,-0.74,976.72
2.156,-0.75,1.03,-0.26,0.05,0.64,-0.85,-0.13,0.37,-0.74,976.72
2.191,-0.78,1.14,-0.13,0.05,0.64,-0.85,-0.13,0.37,-0.74,976.72
2.193,-0.78,1.14,-0.13,-3.90,1.95,0.20,-0.13,0.37,-0.74,976.72
2.195,-0.82,1.16,-0.25,-3.90,1.95,0.20,-0.13,0.37,-0.74,976.72
2.196,-0.82,1.16,-0.25,-3.90,1.95,0.20,-0.14,-0.24,-0.25,976.72
2.198,-0.82,1.16,-0.25,-3.90,1.95,0.20,-0.14,-0.24,-0.25,976.72
2.206,-0.38,1.60,-0.52,-3.90,1.95,0.20,-0.14,-0.24,-0.25,976.72
2.226,-0.01,1.74,-0.43,-3.90,1.95,0.20,-0.14,-0.24,-0.25,976.72
2.228,-0.01,1.74,-0.43,-3.90,1.95,0.20,-0.15,-0.60,0.39,976.72
2.228,-0.01,1.74,-0.43,-3.91,1.85,0.06,-0.15,-0.60,0.39,976.72
2.247,0.16,1.92,-0.36,-3.91,1.85,0.06,-0.15,-0.60,0.39,976.72
2.274,0.16,1.92,-0.36,-3.91,1.85,0.06,-0.15,-0.60,0.39,976.72
2.275,-0.41,2.08,-0.56,-3.91,1.85,0.06,-0.15,-0.60,0.39,976.72
2.276,-0.41,2.08,-0.56,-3.91,1.85,0.06,-0.09,-1.06,-0.79,976.72
2.277,-0.41,2.08,-0.56,3.27,8.18,-2.25,-0.09,-1.06,-0.79,976.72
2.287,-0.58,2.24,-0.38,3.27,8.18,-2.25,-0.09,-1.06,-0.79,976.72
2.306,-0.46,2.17,-0.27,3.27,8.18,-2.25,-0.09,-1.06,-0.79,976.72
2.307,-0.46,2.17,-0.27,3.27,8.18,-2.25,-0.42,-1.36,-3.32,976.72
2.308,-0.46,2.17,-0.27,0.53,12.55,-2.31,-0.42,-1.36,-3.32,976.72
2.311,-0.46,2.17,-0.27,0.53,12.55,-2.31,-0.42,-1.36,-3.32,976.73
2.325,-0.61,2.09,-0.27,0.53,12.55,-2.31,-0.42,-1.36,-3.32,976.73
2.361,-0.67,1.80,-0.32,0.53,12.55,-2.31,-0.42,-1.36,-3.32,976.73
2.364,-0.67,1.80,-0.32,0.53,12.55,-2.31,-0.89,-1.57,-4.28,976.73
2.365,-0.67,1.80,-0.32,1.96,13.30,-2.92,-0.89,-1.57,-4.28,976.73
2.368,-0.63,1.45,-0.25,1.96,13.30,-2.92,-0.89,-1.57,-4.28,976.73
2.413,-0.63,1.45,-0.25,1.96,13.30,-2.92,-0.89,-1.57,-4.28,976.72
2.418,-0.49,1.19,-0.16,1.96,13.30,-2.92,-0.89,-1.57,-4.28,976.72
2.421,-0.49,1.19,-0.16,1.96,13.30,-2.92,-0.92,-1.40,-4.10,976.72
2.424,-0.49,1.19,-0.16,1.67,10.54,-2.32,-0.92,-1.40,-4.10,976.72
2.427,-0.16,0.93,-0.04,1.67,10.54,-2.32,-0.92,-1.40,-4.10,976.72
2.429,-0.10,0.58,0.04,1.67,10.54,-2.32,-0.92,-1.40,-4.10,976.72
2.43,-0.10,0.58,0.04,1.67,10.54,-2.32,-0.71,-1.10,-2.98,976.72
2.431,-0.10,0.58,0.04,6.14,2.84,-0.62,-0.71,-1.10,-2.98,976.72
2.434,-0.10,0.58,0.04,6.14,2.84,-0.62,-0.71,-1.10,-2.98,976.70
2.443,-0.05,0.33,0.02,6.14,2.84,-0.62,-0.71,-1.10,-2.98,976.70
2.464,-0.00,0.08,0.00,6.14,2.84,-0.62,-0.71,-1.10,-2.98,976.70
2.465,-0.00,0.08,0.00,6.14,2.84,-0.62,-0.43,0.18,-1.57,976.70
2.466,-0.00,0.08,0.00,6.38,3.33,-0.64,-0.43,0.18,-1.57,976.70
2.487,-0.03,-0.09,-0.03,6.38,3.33,-0.64,-0.43,0.18,-1.57,976.70
2.493,-0.03,-0.09,-0.03,6.38,3.33,-0.64,-0.43,0.18,-1.57,976.68
2.526,-0.01,-0.05,-0.05,6.38,3.33,-0.64,-0.43,0.18,-1.57,976.68
2.528,-0.01,-0.05,-0.05,6.38,3.33,-0.64,-0.04,0.96,0.05,976.68
2.53,-0.01,-0.05,-0.05,8.41,-4.43,0.17,-0.04,0.96,0.05,976.68
2.533,-0.07,0.01,-0.04,8.41,-4.43,0.17,-0.04,0.96,0.05,976.68
2.544,-0.19,-0.02,-0.03,8.41,-4.43,0.17,-0.04,0.96,0.05,976.68
2.547,-0.19,-0.02,-0.03,8.41,-4.43,0.17,0.27,0.89,1.67,976.68
2.549,-0.19,-0.02,-0.03,7.26,-6.11,0.14,0.27,0.89,1.67,976.68
2.55,-0.19,-0.02,-0.03,7.26,-6.11,0.14,0.27,0.89,1.67,976.66
2.563,-0.10,0.02,0.08,7.26,-6.11,0.14,0.27,0.89,1.67,976.66
2.585,-0.16,0.07,0.11,7.26,-6.11,0.14,0.27,0.89,1.67,976.66
2.587,-0.16,0.07,0.11,7.26,-6.11,0.14,0.52,0.63,2.87,976.66
2.588,-0.16,0.07,0.11,6.41,-6.86,0.46,0.52,0.63,2.87,976.66
2.602,-0.49,0.11,-0.06,6.41,-6.86,0.46,0.52,0.63,2.87,976.66
2.61,-0.49,0.11,-0.06,6.41,-6.86,0.46,0.52,0.63,2.87,976.65
2.622,-0.59,0.25,-0.05,6.41,-6.86,0.46,0.52,0.63,2.87,976.65
2.626,-0.59,0.25,-0.05,6.41,-6.86,0.46,0.63,1.06,3.37,976.65
2.628,-0.59,0.25,-0.05,3.80,-6.76,1.72,0.63,1.06,3.37,976.65
2.66,-0.78,0.28,-0.15,3.80,-6.76,1.72,0.63,1.06,3.37,976.65
2.666,-1.07,0.37,-0.19,3.80,-6.76,1.72,0.63,1.06,3.37,976.65
2.668,-1.07,0.37,-0.19,3.80,-6.76,1.72,0.60,1.16,3.26,976.65
2.67,-1.07,0.37,-0.19,-2.76,-5.07,0.47,0.60,1.16,3.26,976.65
2.671,-1.07,0.37,-0.19,-2.76,-5.07,0.47,0.60,1.16,3.26,976.65
2.7,-1.30,0.41,-0.21,-2.76,-5.07,0.47,0.60,1.16,3.26,976.65
2.702,-1.23,0.35,-0.18,-2.76,-5.07,0.47,0.60,1.16,3.26,976.65
2.703,-1.23,0.35,-0.18,-2.76,-5.07,0.47,0.41,1.03,2.54,976.65
2.704,-1.23,0.35,-0.18,-3.60,-5.43,0.79,0.41,1.03,2.54,976.65
2.721,-1.10,0.28,-0.07,-3.60,-5.43,0.79,0.41,1.03,2.54,976.65
2.73,-1.10,0.28,-0.07,-3.60,-5.43,0.79,0.41,1.03,2.54,976.65
2.742,-1.05,0.06,-0.09,-3.60,-5.43,0.79,0.41,1.03,2.54,976.65
2.743,-1.05,0.06,-0.09,-3.60,-5.43,0.79,0.14,0.83,1.43,976.65
2.744,-1.05,0.06,-0.09,-7.91,-5.14,0.74,0.14,0.83,1.43,976.65
2.772,-0.97,-0.05,-0.17,-7.91,-5.14,0.74,0.14,0.83,1.43,976.65
2.782,-0.58,-0.11,0.11,-7.91,-5.14,0.74,0.14,0.83,1.43,976.65
2.783,-0.58,-0.11,0.11,-7.91,-5.14,0.74,-0.12,0.92,0.64,976.65
2.785,-0.58,-0.11,0.11,-4.76,-8.79,1.78,-0.12,0.92,0.64,976.65
2.815,-0.58,-0.11,0.11,-4.76,-8.79,1.78,-0.12,0.92,0.64,976.66
2.818,-0.56,2.11,-3.79,-4.76,-8.79,1.78,-0.12,0.92,0.64,976.66
2.821,-0.56,2.11,-3.79,-4.90,-8.70,1.91,-0.12,0.92,0.64,976.66
2.826,-3.03,3.91,2.48,-4.90,-8.70,1.91,-0.12,0.92,0.64,976.66
2.829,-3.03,3.91,2.48,-4.90,-8.70,1.91,-0.06,1.26,0.32,976.66
2.841,-0.55,-0.17,0.66,-4.90,-8.70,1.91,-0.06,1.26,0.32,976.66
2.851,-0.55,-0.17,0.66,-4.90,-8.70,1.91,-0.06,1.26,0.32,976.67
2.875,-0.72,-0.93,-1.77,-4.90,-8.70,1.91,-0.06,1.26,0.32,976.67
2.88,-0.72,-0.93,-1.77,-4.90,-8.70,1.91,-0.20,0.49,-0.49,976.67
2.882,-0.72,-0.93,-1.77,-9.65,10.59,0.31,-0.20,0.49,-0.49,976.67
2.886,-0.00,1.34,0.80,-9.65,10.59,0.31,-0.20,0.49,-0.49,976.67
2.899,-0.54,1.72,-0.22,-9.65,10.59,0.31,-0.20,0.49,-0.49,976.67
2.901,-0.54,1.72,-0.22,-9.65,10.59,0.31,0.27,-0.66,-0.17,976.67
2.901,-0.54,1.72,-0.22,-0.11,-1.49,-1.44,0.27,-0.66,-0.17,976.67
2.928,-0.54,1.72,-0.22,-0.11,-1.49,-1.44,0.27,-0.66,-0.17,976.68
2.929,-0.92,0.53,-0.42,-0.11,-1.49,-1.44,0.27,-0.66,-0.17,976.68
2.939,-0.63,0.73,-0.15,-0.11,-1.49,-1.44,0.27,-0.66,-0.17,976.68
2.941,-0.63,0.73,-0.15,-0.11,-1.49,-1.44,0.29,0.63,0.01,976.68
2.943,-0.63,0.73,-0.15,-0.17,-1.44,-1.22,0.29,0.63,0.01,976.68
2.964,-0.46,1.03,-0.30,-0.17,-1.44,-1.22,0.29,0.63,0.01,976.68
2.972,-0.46,1.03,-0.30,-0.17,-1.44,-1.22,0.29,0.63,0.01,976.69
2.992,-0.55,0.83,-0.43,-0.17,-1.44,-1.22,0.29,0.63,0.01,976.69
2.994,-0.55,0.83,-0.43,-0.17,-1.44,-1.22,0.42,-0.13,0.31,976.69
2.996,-0.55,0.83,-0.43,-2.68,-0.88,-0.08,0.42,-0.13,0.31,976.69
2.998,-0.40,0.85,-0.39,-2.68,-0.88,-0.08,0.42,-0.13,0.31,976.69
3.016,-0.37,0.88,-0.40,-2.68,-0.88,-0.08,0.42,-0.13,0.31,976.69
3.017,-0.37,0.88,-0.40,-2.68,-0.88,-0.08,0.34,-0.24,0.50,976.69
3.018,-0.37,0.88,-0.40,-0.56,-0.02,-1.11,0.34,-0.24,0.50,976.69
3.03,-0.37,0.88,-0.40,-0.56,-0.02,-1.11,0.34,-0.24,0.50,976.69
3.049,-0.51,0.86,-0.39,-0.56,-0.02,-1.11,0.34,-0.24,0.50,976.69
3.084,-0.53,0.88,-0.33,-0.56,-0.02,-1.11,0.34,-0.24,0.50,976.69
3.086,-0.53,0.88,-0.33,-0.56,-0.02,-1.11,0.16,0.09,0.54,976.69
3.086,-0.53,0.88,-0.33,-0.74,-0.08,-1.02,0.16,0.09,0.54,976.69
3.087,-0.43,0.88,-0.27,-0.74,-0.08,-1.02,0.16,0.09,0.54,976.69
3.092,-0.43,0.88,-0.27,-0.74,-0.08,-1.02,0.16,0.09,0.54,976.67
3.096,-0.38,0.90,-0.22,-0.74,-0.08,-1.02,0.16,0.09,0.54,976.67
3.097,-0.38,0.90,-0.22,-0.74,-0.08,-1.02,0.09,-0.05,0.71,976.67
3.097,-0.38,0.90,-0.22,-1.40,0.01,-0.29,0.09,-0.05,0.71,976.67
3.115,-0.30,0.93,-0.28,-1.40,0.01,-0.29,0.09,-0.05,0.71,976.67
3.136,-0.36,0.87,-0.30,-1.40,0.01,-0.29,0.09,-0.05,0.71,976.67
3.138,-0.36,0.87,-0.30,-1.40,0.01,-0.29,0.16,-0.20,0.76,976.67
3.14,-0.36,0.87,-0.30,-0.23,0.21,0.35,0.16,-0.20,0.76,976.67
3.16,-0.36,0.87,-0.30,-0.23,0.21,0.35,0.16,-0.20,0.76,976.66
3.163,-0.40,0.91,-0.28,-0.23,0.21,0.35,0.16,-0.20,0.76,976.66
3.216,-0.23,0.92,-0.39,-0.23,0.21,0.35,0.16,-0.20,0.76,976.66
3.22,-0.23,0.92,-0.39,-0.23,0.21,0.35,0.22,-0.28,0.72,976.66
3.221,-0.23,0.92,-0.39,-0.43,0.15,0.38,0.22,-0.28,0.72,976.66
3.222,-0.20,0.90,-0.40,-0.43,0.15,0.38,0.22,-0.28,0.72,976.66
3.223,-0.20,0.90,-0.40,-0.43,0.15,0.38,0.22,-0.28,0.72,976.66
3.223,-0.19,0.94,-0.31,-0.43,0.15,0.38,0.22,-0.28,0.72,976.66
3.224,-0.19,0.94,-0.31,-0.43,0.15,0.38,0.18,-0.45,0.64,976.66
3.224,-0.19,0.94,-0.31,0.08,0.12,-0.44,0.18,-0.45,0.64,976.66
3.234,-0.02,0.95,-0.41,0.08,0.12,-0.44,0.18,-0.45,0.64,976.66
3.256,-0.01,0.92,-0.33,0.08,0.12,-0.44,0.18,-0.45,0.64,976.66
3.258,-0.01,0.92,-0.33,0.08,0.12,-0.44,0.12,-0.39,0.40,976.66
3.259,-0.01,0.92,-0.33,1.96,0.41,-0.36,0.12,-0.39,0.40,976.66
3.269,-0.01,0.92,-0.33,1.96,0.41,-0.36,0.12,-0.39,0.40,976.67
3.281,-0.09,0.90,-0.36,1.96,0.41,-0.36,0.12,-0.39,0.40,976.67
3.294,-0.20,0.93,-0.37,1.96,0.41,-0.36,0.12,-0.39,0.40,976.67
3.296,-0.20,0.93,-0.37,1.94,0.41,-0.33,0.12,-0.39,0.40,976.67
3.297,-0.20,0.93,-0.37,1.94,0.41,-0.33,0.12,-0.14,0.04,976.67
3.313,-0.20,0.92,-0.35,1.94,0.41,-0.33,0.12,-0.14,0.04,976.67
3.328,-0.20,0.92,-0.35,1.94,0.41,-0.33,0.12,-0.14,0.04,976.68
3.333,-0.12,0.93,-0.37,1.94,0.41,-0.33,0.12,-0.14,0.04,976.68
3.336,-0.12,0.93,-0.37,1.94,0.41,-0.33,0.09,0.01,-0.26,976.68
3.338,-0.12,0.93,-0.37,1.10,0.25,-0.42,0.09,0.01,-0.26,976.68
3.357,-0.16,0.96,-0.39,1.10,0.25,-0.42,0.09,0.01,-0.26,976.68
3.396,-0.32,0.95,-0.42,1.10,0.25,-0.42,0.09,0.01,-0.26,976.68
3.398,-0.32,0.95,-0.42,1.10,0.25,-0.42,0.06,-0.03,-0.47,976.68
3.399,-0.32,0.95,-0.42,0.91,0.54,-0.71,0.06,-0.03,-0.47,976.68
3.4,-0.32,0.95,-0.42,0.91,0.54,-0.71,0.06,-0.03,-0.47,976.68
3.402,-0.28,0.95,-0.43,0.91,0.54,-0.71,0.06,-0.03,-0.47,976.68
3.412,-0.39,1.02,-0.32,0.91,0.54,-0.71,0.06,-0.03,-0.47,976.68
3.414,-0.39,1.02,-0.32,0.91,0.54,-0.71,-0.04,0.12,-0.59,976.68
3.415,-0.39,1.02,-0.32,1.08,0.59,-0.70,-0.04,0.12,-0.59,976.68
3.432,-0.71,1.09,-0.14,1.08,0.59,-0.70,-0.04,0.12,-0.59,976.68
3.451,-0.71,1.09,-0.14,1.08,0.59,-0.70,-0.04,0.12,-0.59,976.67
3.457,-0.85,1.10,-0.13,1.08,0.59,-0.70,-0.04,0.12,-0.59,976.67
3.458,-0.85,1.10,-0.13,1.08,0.59,-0.70,-0.08,0.20,-0.44,976.67
3.459,-0.85,1.10,-0.13,-1.33,1.36,0.22,-0.08,0.20,-0.44,976.67
3.488,-0.61,1.32,-0.54,-1.33,1.36,0.22,-0.08,0.20,-0.44,976.67
3.492,-0.27,1.51,-0.47,-1.33,1.36,0.22,-0.08,0.20,-0.44,976.67
3.494,-0.27,1.51,-0.47,-1.33,1.36,0.22,0.03,-0.29,0.17,976.67
3.495,-0.27,1.51,-0.47,-2.50,4.12,-0.58,0.03,-0.29,0.17,976.67
3.508,-0.27,1.51,-0.47,-2.50,4.12,-0.58,0.03,-0.29,0.17,976.67
3.511,0.07,1.44,-0.25,-2.50,4.12,-0.58,0.03,-0.29,0.17,976.67
3.53,0.39,1.62,-0.18,-2.50,4.12,-0.58,0.03,-0.29,0.17,976.67
3.532,0.39,1.62,-0.18,-2.50,4.12,-0.58,0.00,-1.05,0.13,976.67
3.532,0.39,1.62,-0.18,-2.38,4.03,-0.70,0.00,-1.05,0.13,976.67
3.552,-0.28,1.58,-0.50,-2.38,4.03,-0.70,0.00,-1.05,0.13,976.67
3.568,-0.28,1.58,-0.50,-2.38,4.03,-0.70,0.00,-1.05,0.13,976.67
3.571,-1.12,1.75,-0.56,-2.38,4.03,-0.70,0.00,-1.05,0.13,976.67
3.572,-1.12,1.75,-0.56,-2.38,4.03,-0.70,0.01,-0.25,-1.82,976.67
3.573,-1.12,1.75,-0.56,4.49,6.50,-0.02,0.01,-0.25,-1.82,976.67
3.589,-0.44,2.07,-0.09,4.49,6.50,-0.02,0.01,-0.25,-1.82,976.67
3.609,-0.15,1.88,-0.33,4.49,6.50,-0.02,0.01,-0.25,-1.82,976.67
3.613,-0.15,1.88,-0.33,4.49,6.50,-0.02,-0.37,-0.80,-3.37,976.67
3.615,-0.15,1.88,-0.33,-0.47,10.37,-0.47,-0.37,-0.80,-3.37,976.67
3.629,-0.15,1.88,-0.33,-0.47,10.37,-0.47,-0.37,-0.80,-3.37,976.67
3.632,-0.43,1.92,-0.40,-0.47,10.37,-0.47,-0.37,-0.80,-3.37,976.67
3.662,-0.61,1.72,-0.43,-0.47,10.37,-0.47,-0.37,-0.80,-3.37,976.67
3.667,-0.61,1.72,-0.43,-0.47,10.37,-0.47,-0.83,-1.17,-3.98,976.67
3.67,-0.61,1.72,-0.43,0.87,11.01,-0.98,-0.83,-1.17,-3.98,976.67
3.695,-0.67,1.46,-0.45,0.87,11.01,-0.98,-0.83,-1.17,-3.98,976.67
3.7,-0.67,1.46,-0.45,0.87,11.01,-0.98,-0.83,-1.17,-3.98,976.67
3.701,-0.48,1.25,-0.45,0.87,11.01,-0.98,-0.83,-1.17,-3.98,976.67
3.701,-0.48,1.25,-0.45,0.87,11.01,-0.98,-0.94,-0.83,-3.97,976.67
3.702,-0.48,1.25,-0.45,1.97,9.92,-2.41,-0.94,-0.83,-3.97,976.67
3.711,-0.24,0.97,-0.30,1.97,9.92,-2.41,-0.94,-0.83,-3.97,976.67
3.728,-0.28,0.65,-0.32,1.97,9.92,-2.41,-0.94,-0.83,-3.97,976.67
3.729,-0.28,0.65,-0.32,1.97,9.92,-2.41,-0.95,-1.37,-2.97,976.67
3.73,-0.28,0.65,-0.32,5.08,3.45,-2.34,-0.95,-1.37,-2.97,976.67
3.748,-0.28,0.65,-0.32,5.08,3.45,-2.34,-0.95,-1.37,-2.97,976.65
3.749,-0.24,0.51,-0.32,5.08,3.45,-2.34,-0.95,-1.37,-2.97,976.65
3.779,-0.14,0.39,-0.25,5.08,3.45,-2.34,-0.95,-1.37,-2.97,976.65
3.78,-0.14,0.39,-0.25,5.08,3.45,-2.34,-0.95,-0.77,-1.66,976.65
3.781,-0.14,0.39,-0.25,5.39,3.91,-2.77,-0.95,-0.77,-1.66,976.65
3.786,-0.12,0.18,-0.29,5.39,3.91,-2.77,-0.95,-0.77,-1.66,976.65
3.807,-0.04,0.09,-0.28,5.39,3.91,-2.77,-0.95,-0.77,-1.66,976.65
3.809,-0.04,0.09,-0.28,5.39,3.91,-2.77,-0.86,0.07,-0.30,976.65
3.81,-0.04,0.09,-0.28,6.92,-1.83,-2.23,-0.86,0.07,-0.30,976.65
3.811,-0.04,0.09,-0.28,6.92,-1.83,-2.23,-0.86,0.07,-0.30,976.64
3.828,0.01,0.06,-0.26,6.92,-1.83,-2.23,-0.86,0.07,-0.30,976.64
3.861,-0.07,0.01,-0.22,6.92,-1.83,-2.23,-0.86,0.07,-0.30,976.64
3.864,-0.07,0.01,-0.22,6.92,-1.83,-2.23,-0.66,0.81,0.98,976.64
3.865,-0.07,0.01,-0.22,7.86,-5.10,-1.74,-0.66,0.81,0.98,976.64
3.867,-0.19,-0.05,-0.30,7.86,-5.10,-1.74,-0.66,0.81,0.98,976.64
3.869,-0.19,-0.05,-0.30,7.86,-5.10,-1.74,-0.66,0.81,0.98,976.63
3.895,-0.33,-0.13,-0.37,7.86,-5.10,-1.74,-0.66,0.81,0.98,976.63
3.897,-0.33,-0.13,-0.37,7.86,-5.10,-1.74,-0.34,1.37,2.05,976.63
3.898,-0.33,-0.13,-0.37,7.21,-5.66,-1.37,-0.34,1.37,2.05,976.63
3.907,-0.28,-0.06,-0.26,7.21,-5.66,-1.37,-0.34,1.37,2.05,976.63
3.925,-0.28,0.03,-0.18,7.21,-5.66,-1.37,-0.34,1.37,2.05,976.63
3.927,-0.28,0.03,-0.18,7.21,-5.66,-1.37,0.01,1.05,3.03,976.63
3.928,-0.28,0.03,-0.18,4.03,-7.69,-1.59,0.01,1.05,3.03,976.63
3.93,-0.28,0.03,-0.18,4.03,-7.69,-1.59,0.01,1.05,3.03,976.64
3.945,-0.63,0.09,-0.25,4.03,-7.69,-1.59,0.01,1.05,3.03,976.64
3.979,-0.84,0.24,-0.21,4.03,-7.69,-1.59,0.01,1.05,3.03,976.64
3.983,-0.84,0.24,-0.21,4.03,-7.69,-1.59,0.29,1.13,3.42,976.64
3.985,-0.84,0.24,-0.21,-0.14,-6.43,-0.25,0.29,1.13,3.42,976.64
3.987,-1.10,0.38,-0.28,-0.14,-6.43,-0.25,0.29,1.13,3.42,976.64
3.989,-1.10,0.38,-0.28,-0.14,-6.43,-0.25,0.29,1.13,3.42,976.64
4.01,-1.33,0.48,-0.32,-0.14,-6.43,-0.25,0.29,1.13,3.42,976.64
4.012,-1.33,0.48,-0.32,-0.14,-6.43,-0.25,0.31,1.47,2.99,976.64
4.013,-1.33,0.48,-0.32,-1.17,-6.89,0.14,0.31,1.47,2.99,976.64
4.024,-1.36,0.51,-0.30,-1.17,-6.89,0.14,0.31,1.47,2.99,976.64
4.044,-1.20,0.36,-0.25,-1.17,-6.89,0.14,0.31,1.47,2.99,976.64
4.045,-1.20,0.36,-0.25,-1.17,-6.89,0.14,0.08,1.61,1.79,976.64
4.046,-1.20,0.36,-0.25,-8.42,-3.81,-0.47,0.08,1.61,1.79,976.64
4.047,-1.20,0.36,-0.25,-8.42,-3.81,-0.47,0.08,1.61,1.79,976.63
4.07,-1.00,0.29,-0.21,-8.42,-3.81,-0.47,0.08,1.61,1.79,976.63
4.101,-1.31,1.42,-2.03,-8.42,-3.81,-0.47,0.08,1.61,1.79,976.63
4.102,-1.31,1.42,-2.03,-8.42,-3.81,-0.47,0.00,1.92,0.40,976.63
4.103,-1.31,1.42,-2.03,-7.73,-1.56,-5.28,0.00,1.92,0.40,976.63
4.104,-3.61,1.31,0.92,-7.73,-1.56,-5.28,0.00,1.92,0.40,976.63
4.109,-3.61,1.31,0.92,-7.73,-1.56,-5.28,0.00,1.92,0.40,976.63
4.125,-0.44,0.15,0.67,-7.73,-1.56,-5.28,0.00,1.92,0.40,976.63
4.126,-0.44,0.15,0.67,-7.73,-1.56,-5.28,-0.45,1.64,-1.57,976.63
4.127,-0.44,0.15,0.67,-7.29,-1.34,-5.09,-0.45,1.64,-1.57,976.63
4.143,0.78,0.92,-1.80,-7.29,-1.34,-5.09,-0.45,1.64,-1.57,976.63
4.174,-0.49,0.66,0.12,-7.29,-1.34,-5.09,-0.45,1.64,-1.57,976.63
4.177,-0.49,0.66,0.12,-7.29,-1.34,-5.09,0.10,-1.81,0.03,976.63
4.178,-0.49,0.66,0.12,-6.16,-0.30,2.04,0.10,-1.81,0.03,976.63
4.18,-0.49,0.66,0.12,-6.16,-0.30,2.04,0.10,-1.81,0.03,976.64
4.183,-1.44,0.98,0.37,-6.16,-0.30,2.04,0.10,-1.81,0.03,976.64
4.205,-0.76,1.02,-0.45,-6.16,-0.30,2.04,0.10,-1.81,0.03,976.64
4.207,-0.76,1.02,-0.45,-6.16,-0.30,2.04,-0.30,1.00,-0.36,976.64
4.208,-0.76,1.02,-0.45,-4.20,0.62,2.91,-0.30,1.00,-0.36,976.64
4.221,-0.29,0.67,-0.15,-4.20,0.62,2.91,-0.30,1.00,-0.36,976.64
4.226,-0.29,0.67,-0.15,-4.20,0.62,2.91,-0.30,1.00,-0.36,976.66
4.243,-0.56,0.93,-0.21,-4.20,0.62,2.91,-0.30,1.00,-0.36,976.66
4.244,-0.56,0.93,-0.21,-4.20,0.62,2.91,0.07,0.13,-0.05,976.66
4.245,-0.56,0.93,-0.21,-4.12,0.62,2.91,0.07,0.13,-0.05,976.66
4.271,-0.90,0.84,-0.42,-4.12,0.62,2.91,0.07,0.13,-0.05,976.66
4.282,-0.67,0.81,-0.37,-4.12,0.62,2.91,0.07,0.13,-0.05,976.66
4.283,-0.67,0.81,-0.37,-4.12,0.62,2.91,0.19,0.14,0.19,976.66
4.285,-0.67,0.81,-0.37,-1.12,-0.11,0.30,0.19,0.14,0.19,976.66
4.287,-0.67,0.81,-0.37,-1.12,-0.11,0.30,0.19,0.14,0.19,976.65
4.305,-0.39,0.88,-0.31,-1.12,-0.11,0.30,0.19,0.14,0.19,976.65
4.32,-0.46,0.83,-0.34,-1.12,-0.11,0.30,0.19,0.14,0.19,976.65
4.321,-0.46,0.83,-0.34,-1.12,-0.11,0.30,0.10,-0.16,0.50,976.65
4.322,-0.46,0.83,-0.34,-0.49,0.06,-0.46,0.10,-0.16,0.50,976.65
4.352,-0.62,0.85,-0.26,-0.49,0.06,-0.46,0.10,-0.16,0.50,976.65
4.356,-0.62,0.85,-0.26,-0.49,0.06,-0.46,0.10,-0.16,0.50,976.66
4.402,-0.55,0.86,-0.26,-0.49,0.06,-0.46,0.10,-0.16,0.50,976.66
4.405,-0.55,0.86,-0.26,-0.49,0.06,-0.46,0.04,0.07,0.56,976.66
4.407,-0.55,0.86,-0.26,-0.67,-0.03,-0.43,0.04,0.07,0.56,976.66
4.408,-0.48,0.85,-0.29,-0.67,-0.03,-0.43,0.04,0.07,0.56,976.66
4.411,-0.49,0.88,-0.28,-0.67,-0.03,-0.43,0.04,0.07,0.56,976.66
4.414,-0.49,0.88,-0.28,-0.67,-0.03,-0.43,0.09,-0.05,0.71,976.66
4.436,-0.49,0.88,-0.28,-1.31,0.03,0.27,0.09,-0.05,0.71,976.66
4.446,-0.49,0.88,-0.28,-1.31,0.03,0.27,0.09,-0.05,0.71,976.66
4.449,-0.39,0.88,-0.30,-1.31,0.03,0.27,0.09,-0.05,0.71,976.66
4.462,-0.42,0.86,-0.29,-1.31,0.03,0.27,0.09,-0.05,0.71,976.66
4.463,-0.42,0.86,-0.29,-0.39,0.10,0.09,0.09,-0.05,0.71,976.66
4.463,-0.42,0.86,-0.29,-0.39,0.10,0.09,0.12,-0.14,0.81,976.66
4.464,-0.43,0.88,-0.28,-0.39,0.10,0.09,0.12,-0.14,0.81,976.66
4.466,-0.43,0.88,-0.28,-0.39,0.10,0.09,0.12,-0.14,0.81,976.66
4.478,-0.31,0.92,-0.31,-0.39,0.10,0.09,0.12,-0.14,0.81,976.66
4.479,-0.31,0.92,-0.31,-0.39,0.10,0.09,0.14,-0.18,0.80,976.66
4.48,-0.31,0.92,-0.31,-0.63,-0.00,0.11,0.14,-0.18,0.80,976.66
4.497,-0.12,0.93,-0.33,-0.63,-0.00,0.11,0.14,-0.18,0.80,976.66
4.517,-0.19,0.85,-0.37,-0.63,-0.00,0.11,0.14,-0.18,0.80,976.66
4.518,-0.19,0.85,-0.37,-0.63,-0.00,0.11,0.16,-0.39,0.66,976.66
4.52,-0.19,0.85,-0.37,0.62,0.26,-0.02,0.16,-0.39,0.66,976.66
4.53,-0.19,0.85,-0.37,0.62,0.26,-0.02,0.16,-0.39,0.66,976.65
4.538,-0.28,0.91,-0.23,0.62,0.26,-0.02,0.16,-0.39,0.66,976.65
4.562,-0.14,1.00,-0.38,0.62,0.26,-0.02,0.16,-0.39,0.66,976.65
4.563,-0.14,1.00,-0.38,0.62,0.26,-0.02,0.13,-0.22,0.35,976.65
4.563,-0.14,1.00,-0.38,1.32,0.34,-0.21,0.13,-0.22,0.35,976.65
4.577,-0.17,0.99,-0.36,1.32,0.34,-0.21,0.13,-0.22,0.35,976.65
4.585,-0.17,0.99,-0.36,1.32,0.34,-0.21,0.13,-0.22,0.35,976.62
4.596,-0.19,1.05,-0.40,1.32,0.34,-0.21,0.13,-0.22,0.35,976.62
4.597,-0.19,1.05,-0.40,1.32,0.34,-0.21,0.10,-0.34,0.03,976.62
4.597,-0.19,1.05,-0.40,1.33,0.35,-0.22,0.10,-0.34,0.03,976.62
4.616,-0.19,1.01,-0.57,1.33,0.35,-0.22,0.10,-0.34,0.03,976.62
4.636,-0.26,1.00,-0.51,1.33,0.35,-0.22,0.10,-0.34,0.03,976.62
4.637,-0.26,1.00,-0.51,1.33,0.35,-0.22,-0.18,-0.25,-0.32,976.62
4.638,-0.26,1.00,-0.51,1.64,1.27,-1.45,-0.18,-0.25,-0.32,976.62
4.648,-0.26,1.00,-0.51,1.64,1.27,-1.45,-0.18,-0.25,-0.32,976.63
4.656,-0.49,1.03,-0.48,1.64,1.27,-1.45,-0.18,-0.25,-0.32,976.63
4.676,-0.49,1.03,-0.48,-0.62,1.64,-1.39,-0.18,-0.25,-0.32,976.63
4.678,-0.54,1.13,-0.26,-0.62,1.64,-1.39,-0.18,-0.25,-0.32,976.63
4.679,-0.54,1.13,-0.26,-0.62,1.64,-1.39,-0.57,-0.07,-0.53,976.63
4.697,-0.54,1.63,-0.09,-0.62,1.64,-1.39,-0.57,-0.07,-0.53,976.63
4.706,-0.54,1.63,-0.09,-0.62,1.64,-1.39,-0.57,-0.07,-0.53,976.63
4.716,-0.13,1.86,-0.33,-0.62,1.64,-1.39,-0.57,-0.07,-0.53,976.63
4.718,-0.13,1.86,-0.33,-0.62,1.64,-1.39,-0.43,-0.48,-0.30,976.63
4.72,-0.13,1.86,-0.33,-0.46,1.61,-1.58,-0.43,-0.48,-0.30,976.63
4.736,0.39,1.68,-0.35,-0.46,1.61,-1.58,-0.43,-0.48,-0.30,976.63
4.756,0.61,1.33,-0.46,-0.46,1.61,-1.58,-0.43,-0.48,-0.30,976.63
4.758,0.61,1.33,-0.46,-0.46,1.61,-1.58,-0.29,-0.85,-0.36,976.63
4.76,0.61,1.33,-0.46,3.01,8.06,-0.23,-0.29,-0.85,-0.36,976.63
4.788,0.61,1.33,-0.46,3.01,8.06,-0.23,-0.29,-0.85,-0.36,976.64
4.791,0.46,1.33,-0.63,3.01,8.06,-0.23,-0.29,-0.85,-0.36,976.64
4.796,0.46,1.33,-0.63,6.52,5.88,-3.29,-0.29,-0.85,-0.36,976.64
4.798,-0.43,1.80,-0.59,6.52,5.88,-3.29,-0.29,-0.85,-0.36,976.64
4.798,-0.43,1.80,-0.59,6.52,5.88,-3.29,-0.38,-0.08,-1.66,976.64
4.82,-1.79,2.12,-0.21,6.52,5.88,-3.29,-0.38,-0.08,-1.66,976.64
4.828,-1.79,2.12,-0.21,6.52,5.88,-3.29,-0.38,-0.08,-1.66,976.62
4.834,-1.39,1.91,-0.29,6.52,5.88,-3.29,-0.38,-0.08,-1.66,976.62
4.835,-1.39,1.91,-0.29,6.52,5.88,-3.29,-0.58,1.10,-3.65,976.62
4.837,-1.39,1.91,-0.29,7.50,6.44,-3.21,-0.58,1.10,-3.65,976.62
4.854,-0.18,1.74,-0.40,7.50,6.44,-3.21,-0.58,1.10,-3.65,976.62
4.874,-0.88,1.47,-0.55,7.50,6.44,-3.21,-0.58,1.10,-3.65,976.62
4.877,-0.88,1.47,-0.55,7.50,6.44,-3.21,-0.46,-0.36,-4.10,976.62
4.878,-0.88,1.47,-0.55,-4.26,11.45,-0.86,-0.46,-0.36,-4.10,976.62
4.886,-0.88,1.47,-0.55,-4.26,11.45,-0.86,-0.46,-0.36,-4.10,976.63
4.895,-1.21,1.19,-0.38,-4.26,11.45,-0.86,-0.46,-0.36,-4.10,976.63
4.913,-0.71,1.01,-0.06,-4.26,11.45,-0.86,-0.46,-0.36,-4.10,976.63
4.915,-0.71,1.01,-0.06,-4.26,11.45,-0.86,-0.35,-0.68,-4.15,976.63
4.916,-0.71,1.01,-0.06,-1.21,5.66,-1.41,-0.35,-0.68,-4.15,976.63
4.934,-0.27,0.77,0.07,-1.21,5.66,-1.41,-0.35,-0.68,-4.15,976.63
4.947,-0.27,0.77,0.07,-1.21,5.66,-1.41,-0.35,-0.68,-4.15,976.63
4.954,-0.07,0.45,0.13,-1.21,5.66,-1.41,-0.35,-0.68,-4.15,976.63
4.956,-0.07,0.45,0.13,-1.21,5.66,-1.41,-0.36,-1.57,-2.91,976.63
4.958,-0.07,0.45,0.13,-0.44,6.48,-1.98,-0.36,-1.57,-2.91,976.63
4.985,-0.01,0.16,0.11,-0.44,6.48,-1.98,-0.36,-1.57,-2.91,976.63
5.024,-0.09,-0.11,-0.04,-0.44,6.48,-1.98,-0.36,-1.57,-2.91,976.63
5.026,-0.09,-0.11,-0.04,-0.44,6.48,-1.98,-0.45,0.04,-1.60,976.63
5.027,-0.09,-0.11,-0.04,7.74,-0.42,2.13,-0.45,0.04,-1.60,976.63
5.029,-0.09,-0.11,-0.04,7.74,-0.42,2.13,-0.45,0.04,-1.60,976.62
5.031,-0.01,-0.15,-0.03,7.74,-0.42,2.13,-0.45,0.04,-1.60,976.62
5.034,0.01,-0.11,-0.02,7.74,-0.42,2.13,-0.45,0.04,-1.60,976.62
5.034,0.01,-0.11,-0.02,8.46,-6.02,1.16,-0.45,0.04,-1.60,976.62
5.035,0.01,-0.11,-0.02,8.46,-6.02,1.16,-0.13,1.08,-0.17,976.62
5.052,-0.03,-0.15,0.02,8.46,-6.02,1.16,-0.13,1.08,-0.17,976.62
5.076,-0.03,-0.15,0.02,8.46,-6.02,1.16,-0.13,1.08,-0.17,976.60
5.079,0.02,-0.16,0.09,8.46,-6.02,1.16,-0.13,1.08,-0.17,976.60
5.081,0.02,-0.16,0.09,8.46,-6.02,1.16,0.33,0.21,1.56,976.60
5.082,0.02,-0.16,0.09,8.00,-6.41,1.28,0.33,0.21,1.56,976.60
5.119,-0.08,-0.19,0.03,8.00,-6.41,1.28,0.33,0.21,1.56,976.60
5.121,-0.07,-0.15,0.06,8.00,-6.41,1.28,0.33,0.21,1.56,976.60
5.122,-0.07,-0.15,0.06,8.00,-6.41,1.28,0.65,-0.19,3.05,976.60
5.123,-0.07,-0.15,0.06,7.22,-7.59,2.06,0.65,-0.19,3.05,976.60
5.127,-0.07,-0.15,0.06,7.22,-7.59,2.06,0.65,-0.19,3.05,976.58
5.131,-0.20,-0.08,0.02,7.22,-7.59,2.06,0.65,-0.19,3.05,976.58
5.15,-0.45,0.10,0.07,7.22,-7.59,2.06,0.65,-0.19,3.05,976.58
5.151,-0.45,0.10,0.07,7.22,-7.59,2.06,0.95,-0.06,3.97,976.58
5.153,-0.45,0.10,0.07,4.06,-7.30,2.26,0.95,-0.06,3.97,976.58
5.18,-0.87,0.31,-0.06,4.06,-7.30,2.26,0.95,-0.06,3.97,976.58
5.185,-0.87,0.31,-0.06,4.06,-7.30,2.26,0.95,-0.06,3.97,976.55
5.19,-1.46,0.51,-0.09,4.06,-7.30,2.26,0.95,-0.06,3.97,976.55
5.191,-1.46,0.51,-0.09,4.06,-7.30,2.26,0.95,0.51,3.94,976.55
5.192,-1.46,0.51,-0.09,2.83,-8.00,2.61,0.95,0.51,3.94,976.55
5.209,-1.79,0.68,-0.12,2.83,-8.00,2.61,0.95,0.51,3.94,976.55
5.229,-1.60,0.50,-0.06,2.83,-8.00,2.61,0.95,0.51,3.94,976.55
5.231,-1.60,0.50,-0.06,2.83,-8.00,2.61,0.29,0.59,2.82,976.55
5.233,-1.60,0.50,-0.06,-9.05,-3.13,1.45,0.29,0.59,2.82,976.55
5.244,-1.60,0.50,-0.06,-9.05,-3.13,1.45,0.29,0.59,2.82,976.55
5.25,-1.26,0.25,-0.42,-9.05,-3.13,1.45,0.29,0.59,2.82,976.55
5.276,-1.85,1.16,-3.46,-9.05,-3.13,1.45,0.29,0.59,2.82,976.55
5.279,-1.85,1.16,-3.46,-9.05,-3.13,1.45,0.10,0.84,0.60,976.55
5.28,-1.85,1.16,-3.46,-11.05,-1.86,-10.20,0.10,0.84,0.60,976.55
5.289,-2.95,0.48,2.81,-11.05,-1.86,-10.20,0.10,0.84,0.60,976.55
5.322,-2.95,0.48,2.81,-11.05,-1.86,-10.20,0.10,0.84,0.60,976.56
5.325,0.69,1.35,-0.55,-11.05,-1.86,-10.20,0.10,0.84,0.60,976.56
5.326,0.69,1.35,-0.55,-11.05,-1.86,-10.20,-0.24,1.62,-1.87,976.56
5.327,0.69,1.35,-0.55,-10.46,-1.53,-9.82,-0.24,1.62,-1.87,976.56
5.332,-0.20,0.95,-0.99,-10.46,-1.53,-9.82,-0.24,1.62,-1.87,976.56
5.348,-1.28,0.11,0.36,-10.46,-1.53,-9.82,-0.24,1.62,-1.87,976.56
5.35,-1.28,0.11,0.36,-10.46,-1.53,-9.82,0.40,-0.84,0.25,976.56
5.351,-1.28,0.11,0.36,-3.03,1.29,7.00,0.40,-0.84,0.25,976.56
5.374,-1.28,0.11,0.36,-3.03,1.29,7.00,0.40,-0.84,0.25,976.58
5.376,-1.15,1.19,-0.29,-3.03,1.29,7.00,0.40,-0.84,0.25,976.58
5.388,-0.37,0.99,-0.30,-3.03,1.29,7.00,0.40,-0.84,0.25,976.58
5.391,-0.37,0.99,-0.30,-3.03,1.29,7.00,0.21,0.75,-0.02,976.58
5.392,-0.37,0.99,-0.30,-4.17,-0.23,2.32,0.21,0.75,-0.02,976.58
5.412,-0.44,0.58,-0.55,-4.17,-0.23,2.32,0.21,0.75,-0.02,976.58
5.423,-0.44,0.58,-0.55,-4.17,-0.23,2.32,0.21,0.75,-0.02,976.58
5.426,-0.94,0.89,-0.41,-4.17,-0.23,2.32,0.21,0.75,-0.02,976.58
5.428,-0.94,0.89,-0.41,-4.17,-0.23,2.32,0.43,-0.19,0.25,976.58
5.429,-0.94,0.89,-0.41,-4.16,-0.22,2.37,0.43,-0.19,0.25,976.58
5.446,-0.75,0.90,-0.38,-4.16,-0.22,2.37,0.43,-0.19,0.25,976.58
5.483,-0.40,0.78,-0.43,-4.16,-0.22,2.37,0.43,-0.19,0.25,976.58
5.487,-0.40,0.78,-0.43,-4.16,-0.22,2.37,0.22,-0.18,0.58,976.58
5.489,-0.40,0.78,-0.43,-2.09,-0.03,-1.22,0.22,-0.18,0.58,976.58
5.49,-0.40,0.78,-0.43,-2.09,-0.03,-1.22,0.22,-0.18,0.58,976.59
5.491,-0.40,0.78,-0.36,-2.09,-0.03,-1.22,0.22,-0.18,0.58,976.59
5.525,-0.58,0.85,-0.34,-2.09,-0.03,-1.22,0.22,-0.18,0.58,976.59
5.529,-0.58,0.85,-0.34,-2.09,-0.03,-1.22,0.07,-0.19,0.73,976.59
5.533,-0.58,0.85,-0.34,0.16,-0.04,-0.49,0.07,-0.19,0.73,976.59
5.535,-0.56,0.85,-0.28,0.16,-0.04,-0.49,0.07,-0.19,0.73,976.59
5.551,-0.56,0.85,-0.28,0.16,-0.04,-0.49,0.07,-0.19,0.73,976.59
5.554,-0.45,0.88,-0.25,0.16,-0.04,-0.49,0.07,-0.19,0.73,976.59
5.555,-0.45,0.88,-0.25,0.16,-0.04,-0.49,-0.01,0.15,0.74,976.59
5.557,-0.45,0.88,-0.25,-0.09,-0.17,-0.46,-0.01,0.15,0.74,976.59
5.578,-0.39,0.87,-0.30,-0.09,-0.17,-0.46,-0.01,0.15,0.74,976.59
5.585,-0.40,0.81,-0.30,-0.09,-0.17,-0.46,-0.01,0.15,0.74,976.59
5.586,-0.40,0.81,-0.30,-0.09,-0.17,-0.46,0.05,-0.04,0.79,976.59
5.586,-0.40,0.81,-0.30,-0.42,0.27,0.49,0.05,-0.04,0.79,976.59
5.603,-0.40,0.81,-0.30,-0.42,0.27,0.49,0.05,-0.04,0.79,976.59
5.604,-0.38,0.85,-0.28,-0.42,0.27,0.49,0.05,-0.04,0.79,976.59
5.623,-0.33,0.92,-0.35,-0.42,0.27,0.49,0.05,-0.04,0.79,976.59
5.625,-0.33,0.92,-0.35,-0.42,0.27,0.49,0.10,-0.07,0.69,976.59
5.628,-0.33,0.92,-0.35,0.31,0.14,0.18,0.10,-0.07,0.69,976.59
5.645,-0.28,0.93,-0.36,0.31,0.14,0.18,0.10,-0.07,0.69,976.59
5.664,-0.28,0.93,-0.36,0.31,0.14,0.18,0.10,-0.07,0.69,976.58
5.667,-0.24,0.90,-0.32,0.31,0.14,0.18,0.10,-0.07,0.69,976.58
5.669,-0.24,0.90,-0.32,0.31,0.14,0.18,0.13,-0.27,0.51,976.58
5.671,-0.24,0.90,-0.32,0.18,0.07,0.18,0.13,-0.27,0.51,976.58
5.704,-0.16,0.93,-0.38,0.18,0.07,0.18,0.13,-0.27,0.51,976.58
5.708,-0.21,0.97,-0.34,0.18,0.07,0.18,0.13,-0.27,0.51,976.58
5.71,-0.21,0.97,-0.34,0.18,0.07,0.18,0.10,-0.40,0.22,976.58
5.712,-0.21,0.97,-0.34,1.52,0.61,-0.28,0.10,-0.40,0.22,976.58
5.738,-0.21,0.97,-0.34,1.52,0.61,-0.28,0.10,-0.40,0.22,976.58
5.739,-0.27,0.93,-0.38,1.52,0.61,-0.28,0.10,-0.40,0.22,976.58
5.742,-0.33,0.99,-0.40,1.52,0.61,-0.28,0.10,-0.40,0.22,976.58
5.743,-0.33,0.99,-0.40,1.52,0.61,-0.28,-0.02,-0.13,-0.17,976.58
5.744,-0.33,0.99,-0.40,1.19,1.04,-0.47,-0.02,-0.13,-0.17,976.58
5.768,-0.30,1.09,-0.42,1.19,1.04,-0.47,-0.02,-0.13,-0.17,976.58
5.795,-0.47,1.02,-0.31,1.19,1.04,-0.47,-0.02,-0.13,-0.17,976.58
5.797,-0.47,1.02,-0.31,1.19,1.04,-0.47,-0.13,-0.17,-0.43,976.58
5.798,-0.47,1.02,-0.31,1.33,1.07,-0.53,-0.13,-0.17,-0.43,976.58
5.799,-0.47,1.02,-0.31,1.33,1.07,-0.53,-0.13,-0.17,-0.43,976.58
5.802,-0.57,1.13,-0.28,1.33,1.07,-0.53,-0.13,-0.17,-0.43,976.58
5.822,-0.52,1.44,-0.32,1.33,1.07,-0.53,-0.13,-0.17,-0.43,976.58
5.824,-0.52,1.44,-0.32,1.33,1.07,-0.53,-0.17,-0.32,-0.48,976.58
5.826,-0.52,1.44,-0.32,-0.23,2.23,-0.28,-0.17,-0.32,-0.48,976.58
5.842,-0.50,1.63,-0.30,-0.23,2.23,-0.28,-0.17,-0.32,-0.48,976.58
5.845,-0.50,1.63,-0.30,-0.23,2.23,-0.28,-0.17,-0.32,-0.48,976.60
5.872,-0.36,1.79,-0.35,-0.23,2.23,-0.28,-0.17,-0.32,-0.48,976.60
5.877,-0.36,1.79,-0.35,-0.23,2.23,-0.28,-0.13,-0.95,-0.33,976.60
5.879,-0.36,1.79,-0.35,-0.15,7.43,-0.34,-0.13,-0.95,-0.33,976.60
5.882,0.19,1.56,-0.48,-0.15,7.43,-0.34,-0.13,-0.95,-0.33,976.60
5.901,0.58,1.39,-0.63,-0.15,7.43,-0.34,-0.13,-0.95,-0.33,976.60
5.903,0.58,1.39,-0.63,-0.15,7.43,-0.34,-0.18,-1.43,-0.27,976.60
5.905,0.58,1.39,-0.63,0.08,7.33,-0.64,-0.18,-1.43,-0.27,976.60
5.906,0.58,1.39,-0.63,0.08,7.33,-0.64,-0.18,-1.43,-0.27,976.60
5.92,0.55,1.97,-0.88,0.08,7.33,-0.64,-0.18,-1.43,-0.27,976.60
5.94,-1.51,2.35,-0.64,0.08,7.33,-0.64,-0.18,-1.43,-0.27,976.60
5.941,-1.51,2.35,-0.64,0.08,7.33,-0.64,-0.26,-0.19,-1.93,976.60
5.942,-1.51,2.35,-0.64,9.42,7.80,-4.05,-0.26,-0.19,-1.93,976.60
5.96,-2.33,1.91,-0.36,9.42,7.80,-4.05,-0.26,-0.19,-1.93,976.60
5.974,-2.33,1.91,-0.36,9.42,7.80,-4.05,-0.26,-0.19,-1.93,976.59
6.004,-0.93,1.64,-0.41,9.42,7.80,-4.05,-0.26,-0.19,-1.93,976.59
6.005,-0.93,1.64,-0.41,9.42,7.80,-4.05,-0.17,0.45,-4.66,976.59
6.006,-0.93,1.64,-0.41,-8.92,11.83,-2.04,-0.17,0.45,-4.66,976.59
6.007,-0.64,1.44,-0.47,-8.92,11.83,-2.04,-0.17,0.45,-4.66,976.59
6.019,-0.64,1.04,-0.06,-8.92,11.83,-2.04,-0.17,0.45,-4.66,976.59
6.02,-0.64,1.04,-0.06,-8.92,11.83,-2.04,0.14,-2.47,-4.27,976.59
6.02,-0.64,1.04,-0.06,-7.42,12.86,-2.69,0.14,-2.47,-4.27,976.59
6.022,-0.64,1.04,-0.06,-7.42,12.86,-2.69,0.14,-2.47,-4.27,976.58
6.039,-0.31,0.79,0.10,-7.42,12.86,-2.69,0.14,-2.47,-4.27,976.58
6.058,-0.11,0.63,0.06,-7.42,12.86,-2.69,0.14,-2.47,-4.27,976.58
6.058,-0.11,0.63,0.06,-7.42,12.86,-2.69,-0.21,-1.95,-3.28,976.58
6.059,-0.11,0.63,0.06,3.76,5.27,-0.21,-0.21,-1.95,-3.28,976.58
6.078,-0.00,0.37,0.01,3.76,5.27,-0.21,-0.21,-1.95,-3.28,976.58
6.081,-0.00,0.37,0.01,3.76,5.27,-0.21,-0.21,-1.95,-3.28,976.58
6.097,-0.07,0.06,-0.10,3.76,5.27,-0.21,-0.21,-1.95,-3.28,976.58
6.098,-0.07,0.06,-0.10,3.76,5.27,-0.21,-0.48,-0.18,-2.08,976.58
6.098,-0.07,0.06,-0.10,8.64,-1.19,0.92,-0.48,-0.18,-2.08,976.58
6.117,-0.09,-0.06,-0.17,8.64,-1.19,0.92,-0.48,-0.18,-2.08,976.58
6.137,-0.09,-0.04,-0.19,8.64,-1.19,0.92,-0.48,-0.18,-2.08,976.58
6.138,-0.09,-0.04,-0.19,8.64,-1.19,0.92,-0.42,1.06,-0.75,976.58
6.138,-0.09,-0.04,-0.19,8.58,-0.92,1.21,-0.42,1.06,-0.75,976.58
6.141,-0.09,-0.04,-0.19,8.58,-0.92,1.21,-0.42,1.06,-0.75,976.56
6.156,-0.07,-0.05,-0.19,8.58,-0.92,1.21,-0.42,1.06,-0.75,976.56
6.176,-0.02,-0.09,-0.12,8.58,-0.92,1.21,-0.42,1.06,-0.75,976.56
6.178,-0.02,-0.09,-0.12,8.58,-0.92,1.21,-0.20,0.51,0.85,976.56
6.178,-0.02,-0.09,-0.12,8.06,-5.11,-0.31,-0.20,0.51,0.85,976.56
6.198,-0.07,-0.12,-0.09,8.06,-5.11,-0.31,-0.20,0.51,0.85,976.56
6.201,-0.07,-0.12,-0.09,8.06,-5.11,-0.31,-0.20,0.51,0.85,976.55
6.216,-0.10,-0.08,-0.13,8.06,-5.11,-0.31,-0.20,0.51,0.85,976.55
6.217,-0.10,-0.08,-0.13,8.06,-5.11,-0.31,-0.06,0.33,2.23,976.55
6.217,-0.10,-0.08,-0.13,7.63,-6.24,0.45,-0.06,0.33,2.23,976.55
6.235,-0.17,-0.06,-0.17,7.63,-6.24,0.45,-0.06,0.33,2.23,976.55
6.255,-0.30,0.01,-0.15,7.63,-6.24,0.45,-0.06,0.33,2.23,976.55
6.256,-0.30,0.01,-0.15,7.63,-6.24,0.45,0.15,0.68,3.19,976.55
6.257,-0.30,0.01,-0.15,6.74,-7.10,0.68,0.15,0.68,3.19,976.55
6.277,-0.30,0.01,-0.15,6.74,-7.10,0.68,0.15,0.68,3.19,976.53
6.279,-0.45,0.15,-0.12,6.74,-7.10,0.68,0.15,0.68,3.19,976.53
6.295,-0.75,0.23,-0.19,6.74,-7.10,0.68,0.15,0.68,3.19,976.53
6.296,-0.75,0.23,-0.19,6.74,-7.10,0.68,0.34,1.03,3.67,976.53
6.296,-0.75,0.23,-0.19,3.30,-6.67,0.69,0.34,1.03,3.67,976.53
6.315,-1.08,0.35,-0.30,3.30,-6.67,0.69,0.34,1.03,3.67,976.53
6.321,-1.08,0.35,-0.30,3.30,-6.67,0.69,0.34,1.03,3.67,976.50
6.335,-1.34,0.52,-0.38,3.30,-6.67,0.69,0.34,1.03,3.67,976.50
6.336,-1.34,0.52,-0.38,3.30,-6.67,0.69,0.41,1.31,3.45,976.50
6.336,-1.34,0.52,-0.38,-5.11,-4.06,-0.25,0.41,1.31,3.45,976.50
6.354,-1.48,0.49,-0.35,-5.11,-4.06,-0.25,0.41,1.31,3.45,976.50
6.376,-1.48,0.49,-0.35,-5.88,-4.41,0.04,0.41,1.31,3.45,976.50
6.377,-1.19,0.38,-0.24,-5.88,-4.41,0.04,0.41,1.31,3.45,976.50
6.378,-1.19,0.38,-0.24,-5.88,-4.41,0.04,0.15,1.29,2.35,976.50
6.4,-1.19,0.38,-0.24,-5.88,-4.41,0.04,0.15,1.29,2.35,976.50
6.401,-0.93,0.22,-0.14,-5.88,-4.41,0.04,0.15,1.29,2.35,976.50
6.418,-0.67,0.59,-1.62,-5.88,-4.41,0.04,0.15,1.29,2.35,976.50
6.42,-0.67,0.59,-1.62,-5.88,-4.41,0.04,0.03,1.37,1.06,976.50
6.422,-0.67,0.59,-1.62,-7.67,-4.55,0.69,0.03,1.37,1.06,976.50
6.436,-3.36,2.54,-0.93,-7.67,-4.55,0.69,0.03,1.37,1.06,976.50
6.441,-3.36,2.54,-0.93,-7.67,-4.55,0.69,0.03,1.37,1.06,976.51
6.454,-2.61,0.46,2.71,-7.67,-4.55,0.69,0.03,1.37,1.06,976.51
6.455,-2.61,0.46,2.71,-7.67,-4.55,0.69,-0.46,1.91,-1.84,976.51
6.456,-2.61,0.46,2.71,-16.95,3.78,3.74,-0.46,1.91,-1.84,976.51
6.475,0.66,0.25,-2.34,-16.95,3.78,3.74,-0.46,1.91,-1.84,976.51
6.494,0.35,0.69,-0.28,-16.95,3.78,3.74,-0.46,1.91,-1.84,976.51
6.495,0.35,0.69,-0.28,-16.95,3.78,3.74,0.15,-1.58,0.37,976.51
6.495,0.35,0.69,-0.28,-16.59,3.66,3.43,0.15,-1.58,0.37,976.51
6.5,0.35,0.69,-0.28,-16.59,3.66,3.43,0.15,-1.58,0.37,976.53
6.512,-0.85,0.99,0.42,-16.59,3.66,3.43,0.15,-1.58,0.37,976.53
6.533,-1.14,1.11,-0.40,-16.59,3.66,3.43,0.15,-1.58,0.37,976.53
6.534,-1.14,1.11,-0.40,-16.59,3.66,3.43,-0.18,0.38,0.33,976.53
6.535,-1.14,1.11,-0.40,5.37,-1.81,-4.20,-0.18,0.38,0.33,976.53
6.553,-0.56,0.67,-0.30,5.37,-1.81,-4.20,-0.18,0.38,0.33,976.53
6.561,-0.56,0.67,-0.30,5.37,-1.81,-4.20,-0.18,0.38,0.33,976.54
6.573,-0.56,0.67,-0.30,-1.72,0.47,-0.16,-0.18,0.38,0.33,976.54
6.574,-0.30,0.86,-0.29,-1.72,0.47,-0.16,-0.18,0.38,0.33,976.54
6.575,-0.30,0.86,-0.29,-1.72,0.47,-0.16,-0.00,0.37,0.13,976.54
6.595,-0.75,0.90,-0.43,-1.72,0.47,-0.16,-0.00,0.37,0.13,976.54
6.613,-0.77,0.84,-0.30,-1.72,0.47,-0.16,-0.00,0.37,0.13,976.54
6.615,-0.77,0.84,-0.30,-1.72,0.47,-0.16,0.15,-0.06,0.50,976.54
6.616,-0.77,0.84,-0.30,-1.84,0.39,-0.12,0.15,-0.06,0.50,976.54
6.621,-0.77,0.84,-0.30,-1.84,0.39,-0.12,0.15,-0.06,0.50,976.55
6.633,-0.44,0.87,-0.33,-1.84,0.39,-0.12,0.15,-0.06,0.50,976.55
6.652,-0.32,0.84,-0.37,-1.84,0.39,-0.12,0.15,-0.06,0.50,976.55
6.655,-0.32,0.84,-0.37,-1.84,0.39,-0.12,0.09,-0.35,0.79,976.55
6.657,-0.32,0.84,-0.37,-1.94,0.19,-0.41,0.09,-0.35,0.79,976.55
6.686,-0.40,0.90,-0.34,-1.94,0.19,-0.41,0.09,-0.35,0.79,976.55
6.69,-0.40,0.90,-0.34,-1.94,0.19,-0.41,0.09,-0.35,0.79,976.54
6.693,-0.46,0.91,-0.36,-1.94,0.19,-0.41,0.09,-0.35,0.79,976.54
6.694,-0.46,0.91,-0.36,-1.94,0.19,-0.41,0.04,-0.18,0.82,976.54
6.695,-0.46,0.91,-0.36,0.37,0.18,-0.49,0.04,-0.18,0.82,976.54
6.727,-0.51,0.81,-0.35,0.37,0.18,-0.49,0.04,-0.18,0.82,976.54
6.732,-0.39,0.86,-0.27,0.37,0.18,-0.49,0.04,-0.18,0.82,976.54
6.733,-0.39,0.86,-0.27,0.37,0.18,-0.49,-0.01,-0.05,0.84,976.54
6.734,-0.39,0.86,-0.27,0.09,0.05,-0.49,-0.01,-0.05,0.84,976.54
6.741,-0.39,0.86,-0.27,0.09,0.05,-0.49,-0.01,-0.05,0.84,976.54
6.75,-0.22,0.93,-0.31,0.09,0.05,-0.49,-0.01,-0.05,0.84,976.54
6.776,-0.25,0.88,-0.34,0.09,0.05,-0.49,-0.01,-0.05,0.84,976.54
6.779,-0.25,0.88,-0.34,0.09,0.05,-0.49,0.01,-0.29,0.88,976.54
6.78,-0.25,0.88,-0.34,0.02,-0.25,-0.02,0.01,-0.29,0.88,976.54
6.816,-0.29,0.90,-0.23,0.02,-0.25,-0.02,0.01,-0.29,0.88,976.54
6.819,-0.29,0.90,-0.23,0.02,-0.25,-0.02,0.01,-0.29,0.88,976.54
6.821,-0.19,0.93,-0.26,0.02,-0.25,-0.02,0.01,-0.29,0.88,976.54
6.823,-0.19,0.93,-0.26,0.02,-0.25,-0.02,0.03,-0.12,0.69,976.54
6.824,-0.19,0.93,-0.26,1.06,-0.00,0.29,0.03,-0.12,0.69,976.54
6.831,-0.14,0.90,-0.27,1.06,-0.00,0.29,0.03,-0.12,0.69,976.54
6.854,-0.09,0.99,-0.27,1.06,-0.00,0.29,0.03,-0.12,0.69,976.54
6.855,-0.09,0.99,-0.27,1.06,-0.00,0.29,0.12,-0.26,0.42,976.54
6.856,-0.09,0.99,-0.27,0.93,-0.04,0.29,0.12,-0.26,0.42,976.54
6.86,-0.09,0.99,-0.27,0.93,-0.04,0.29,0.12,-0.26,0.42,976.55
6.872,-0.09,0.98,-0.40,0.93,-0.04,0.29,0.12,-0.26,0.42,976.55
6.904,-0.16,0.91,-0.46,0.93,-0.04,0.29,0.12,-0.26,0.42,976.55
6.906,-0.16,0.91,-0.46,0.93,-0.04,0.29,0.13,-0.29,0.01,976.55
6.907,-0.16,0.91,-0.46,2.26,0.50,-0.05,0.13,-0.29,0.01,976.55
6.908,-0.32,1.01,-0.39,2.26,0.50,-0.05,0.13,-0.29,0.01,976.55
6.921,-0.32,1.01,-0.39,2.26,0.50,-0.05,0.13,-0.29,0.01,976.54
6.928,-0.34,1.03,-0.40,2.26,0.50,-0.05,0.13,-0.29,0.01,976.54
6.929,-0.34,1.03,-0.40,2.26,0.50,-0.05,0.01,-0.20,-0.30,976.54
6.93,-0.34,1.03,-0.40,0.75,0.77,-1.07,0.01,-0.20,-0.30,976.54
6.954,-0.37,1.02,-0.35,0.75,0.77,-1.07,0.01,-0.20,-0.30,976.54
6.987,-0.37,1.02,-0.35,0.89,0.79,-1.14,0.01,-0.20,-0.30,976.54
6.992,-0.48,1.10,-0.30,0.89,0.79,-1.14,0.01,-0.20,-0.30,976.54
6.992,-0.48,1.10,-0.30,0.89,0.79,-1.14,-0.12,-0.28,-0.35,976.54
6.993,-0.48,1.10,-0.30,0.89,0.79,-1.14,-0.12,-0.28,-0.35,976.54
6.994,-0.55,1.25,-0.28,0.89,0.79,-1.14,-0.12,-0.28,-0.35,976.54
7.033,-0.53,1.43,-0.29,0.89,0.79,-1.14,-0.12,-0.28,-0.35,976.54
7.035,-0.53,1.43,-0.29,0.89,0.79,-1.14,-0.17,-0.52,-0.20,976.54
7.037,-0.53,1.43,-0.29,-0.87,2.15,-0.26,-0.17,-0.52,-0.20,976.54
7.038,-0.32,1.77,-0.38,-0.87,2.15,-0.26,-0.17,-0.52,-0.20,976.54
7.04,-0.32,1.77,-0.38,-0.87,2.15,-0.26,-0.17,-0.52,-0.20,976.54
7.049,0.19,1.59,-0.43,-0.87,2.15,-0.26,-0.17,-0.52,-0.20,976.54
7.052,0.19,1.59,-0.43,1.64,6.65,-1.04,-0.17,-0.52,-0.20,976.54
7.054,0.19,1.59,-0.43,1.64,6.65,-1.04,-0.22,-1.12,0.06,976.54
7.067,0.62,1.26,-0.61,1.64,6.65,-1.04,-0.22,-1.12,0.06,976.54
7.106,1.06,1.58,-0.60,1.64,6.65,-1.04,-0.22,-1.12,0.06,976.54
7.11,1.06,1.58,-0.60,1.64,6.65,-1.04,-0.27,-1.39,-0.36,976.54
7.111,1.06,1.58,-0.60,1.87,6.56,-1.33,-0.27,-1.39,-0.36,976.54
7.112,1.06,1.58,-0.60,1.87,6.56,-1.33,-0.27,-1.39,-0.36,976.54
7.113,-0.37,2.26,-0.87,1.87,6.56,-1.33,-0.27,-1.39,-0.36,976.54
7.146,-2.46,2.31,-0.36,1.87,6.56,-1.33,-0.27,-1.39,-0.36,976.54
7.148,-2.46,2.31,-0.36,1.87,6.56,-1.33,-0.47,0.67,-3.45,976.54
7.149,-2.46,2.31,-0.36,9.29,8.01,-4.44,-0.47,0.67,-3.45,976.54
7.152,-1.42,2.01,-0.22,9.29,8.01,-4.44,-0.47,0.67,-3.45,976.54
7.159,-1.42,2.01,-0.22,9.29,8.01,-4.44,-0.47,0.67,-3.45,976.53
7.168,-0.20,1.83,-0.33,9.29,8.01,-4.44,-0.47,0.67,-3.45,976.53
7.169,-0.20,1.83,-0.33,9.29,8.01,-4.44,-0.52,-0.40,-5.26,976.53
7.17,-0.20,1.83,-0.33,-6.51,12.41,-0.90,-0.52,-0.40,-5.26,976.53
7.192,-0.61,1.29,-0.33,-6.51,12.41,-0.90,-0.52,-0.40,-5.26,976.53
7.233,-0.61,1.29,-0.33,-5.06,13.49,-1.44,-0.52,-0.40,-5.26,976.53
7.235,-0.59,0.92,-0.09,-5.06,13.49,-1.44,-0.52,-0.40,-5.26,976.53
7.236,-0.59,0.92,-0.09,-5.06,13.49,-1.44,-0.52,-1.40,-4.53,976.53
7.237,-0.59,0.92,-0.09,-5.06,13.49,-1.44,-0.52,-1.40,-4.53,976.53
7.238,-0.40,0.81,0.09,-5.06,13.49,-1.44,-0.52,-1.40,-4.53,976.53
7.243,-0.11,0.60,0.08,-5.06,13.49,-1.44,-0.52,-1.40,-4.53,976.53
7.244,-0.11,0.60,0.08,-5.06,13.49,-1.44,-0.45,-0.02,-3.65,976.53
7.245,-0.11,0.60,0.08,3.85,4.44,0.35,-0.45,-0.02,-3.65,976.53
7.278,-0.01,0.24,0.02,3.85,4.44,0.35,-0.45,-0.02,-3.65,976.53
7.285,-0.01,0.24,0.02,3.85,4.44,0.35,-0.45,-0.02,-3.65,976.53
7.287,0.03,-0.06,-0.11,3.85,4.44,0.35,-0.45,-0.02,-3.65,976.53
7.289,0.03,-0.06,-0.11,3.85,4.44,0.35,-0.40,0.74,-2.27,976.53
7.291,0.03,-0.06,-0.11,9.05,-2.05,1.57,-0.40,0.74,-2.27,976.53
7.307,-0.10,-0.07,-0.17,9.05,-2.05,1.57,-0.40,0.74,-2.27,976.53
7.323,-0.15,0.01,-0.10,9.05,-2.05,1.57,-0.40,0.74,-2.27,976.53
7.324,-0.15,0.01,-0.10,9.05,-2.05,1.57,-0.20,0.84,-0.62,976.53
7.325,-0.15,0.01,-0.10,8.95,-1.81,1.81,-0.20,0.84,-0.62,976.53
7.34,-0.15,0.01,-0.10,8.95,-1.81,1.81,-0.20,0.84,-0.62,976.52
7.343,-0.08,0.01,-0.05,8.95,-1.81,1.81,-0.20,0.84,-0.62,976.52
7.363,-0.01,-0.04,-0.04,8.95,-1.81,1.81,-0.20,0.84,-0.62,976.52
7.366,-0.01,-0.04,-0.04,8.95,-1.81,1.81,0.05,-0.33,1.21,976.52
7.368,-0.01,-0.04,-0.04,7.80,-4.84,0.65,0.05,-0.33,1.21,976.52
7.393,0.01,-0.03,0.01,7.80,-4.84,0.65,0.05,-0.33,1.21,976.52
7.422,0.01,-0.03,0.01,7.80,-4.84,0.65,0.05,-0.33,1.21,976.51
7.424,-0.14,-0.05,-0.08,7.80,-4.84,0.65,0.05,-0.33,1.21,976.51
7.424,-0.14,-0.05,-0.08,7.80,-4.84,0.65,0.23,-0.47,2.61,976.51
7.425,-0.14,-0.05,-0.08,7.77,-5.87,1.24,0.23,-0.47,2.61,976.51
7.426,-0.23,-0.03,-0.11,7.77,-5.87,1.24,0.23,-0.47,2.61,976.51
7.441,-0.41,0.12,-0.14,7.77,-5.87,1.24,0.23,-0.47,2.61,976.51
7.442,-0.41,0.12,-0.14,7.77,-5.87,1.24,0.42,0.23,3.45,976.51
7.443,-0.41,0.12,-0.14,6.82,-6.80,1.38,0.42,0.23,3.45,976.51
7.459,-0.41,0.12,-0.14,6.82,-6.80,1.38,0.42,0.23,3.45,976.50
7.461,-0.54,0.28,-0.05,6.82,-6.80,1.38,0.42,0.23,3.45,976.50
7.482,-0.54,0.28,-0.05,2.30,-6.10,0.96,0.42,0.23,3.45,976.50
7.486,-0.71,0.40,-0.13,2.30,-6.10,0.96,0.42,0.23,3.45,976.50
7.488,-0.71,0.40,-0.13,2.30,-6.10,0.96,0.53,0.39,3.90,976.50
7.508,-1.19,0.46,-0.31,2.30,-6.10,0.96,0.53,0.39,3.90,976.50
7.519,-1.19,0.46,-0.31,2.30,-6.10,0.96,0.53,0.39,3.90,976.48
7.523,-1.33,0.62,-0.30,2.30,-6.10,0.96,0.53,0.39,3.90,976.48
7.524,-1.33,0.62,-0.30,2.30,-6.10,0.96,0.33,0.73,3.55,976.48
7.525,-1.33,0.62,-0.30,-5.42,-3.18,-0.21,0.33,0.73,3.55,976.48
7.54,-1.22,0.59,-0.27,-5.42,-3.18,-0.21,0.33,0.73,3.55,976.48
7.561,-0.90,0.30,-0.12,-5.42,-3.18,-0.21,0.33,0.73,3.55,976.48
7.563,-0.90,0.30,-0.12,-5.42,-3.18,-0.21,-0.11,0.93,2.38,976.48
7.565,-0.90,0.30,-0.12,-6.17,-3.58,-0.08,-0.11,0.93,2.38,976.48
7.588,-0.90,0.30,-0.12,-6.17,-3.58,-0.08,-0.11,0.93,2.38,976.48
7.591,-0.72,0.47,-0.73,-6.17,-3.58,-0.08,-0.11,0.93,2.38,976.48
7.618,-2.37,1.86,-2.88,-6.17,-3.58,-0.08,-0.11,0.93,2.38,976.48
7.62,-2.37,1.86,-2.88,-6.17,-3.58,-0.08,0.16,1.80,0.20,976.48
7.621,-2.37,1.86,-2.88,-5.06,-3.91,-0.92,0.16,1.80,0.20,976.48
7.621,-3.90,-0.29,3.24,-5.06,-3.91,-0.92,0.16,1.80,0.20,976.48
7.638,-3.90,-0.29,3.24,-5.06,-3.91,-0.92,0.16,1.80,0.20,976.50
7.639,0.16,0.59,-1.56,-5.06,-3.91,-0.92,0.16,1.80,0.20,976.50
7.64,0.16,0.59,-1.56,-5.06,-3.91,-0.92,-0.41,2.14,-2.44,976.50
7.641,0.16,0.59,-1.56,-14.95,-0.94,-0.93,-0.41,2.14,-2.44,976.50
7.659,0.26,1.39,-0.97,-14.95,-0.94,-0.93,-0.41,2.14,-2.44,976.50
7.684,-0.57,0.63,0.45,-14.95,-0.94,-0.93,-0.41,2.14,-2.44,976.50
7.688,-0.57,0.63,0.45,-14.95,-0.94,-0.93,0.40,-1.64,0.45,976.50
7.691,-0.57,0.63,0.45,-14.65,-0.97,-1.11,0.40,-1.64,0.45,976.50
7.718,-0.57,0.63,0.45,-14.65,-0.97,-1.11,0.40,-1.64,0.45,976.51
7.721,-0.89,0.89,-0.40,-14.65,-0.97,-1.11,0.40,-1.64,0.45,976.51
7.723,-0.82,0.87,-0.44,-14.65,-0.97,-1.11,0.40,-1.64,0.45,976.51
7.724,-0.82,0.87,-0.44,-14.65,-0.97,-1.11,0.09,0.59,0.16,976.51
7.725,-0.82,0.87,-0.44,1.24,1.46,-0.09,0.09,0.59,0.16,976.51
7.738,-0.37,0.81,-0.26,1.24,1.46,-0.09,0.09,0.59,0.16,976.51
7.758,-0.60,0.85,-0.40,1.24,1.46,-0.09,0.09,0.59,0.16,976.51
7.762,-0.60,0.85,-0.40,1.24,1.46,-0.09,0.19,0.10,0.28,976.51
7.764,-0.60,0.85,-0.40,-0.79,0.21,-0.56,0.19,0.10,0.28,976.51
7.765,-0.60,0.85,-0.40,-0.79,0.21,-0.56,0.19,0.10,0.28,976.52
7.791,-0.72,0.86,-0.34,-0.79,0.21,-0.56,0.19,0.10,0.28,976.52
7.797,-0.55,0.84,-0.33,-0.79,0.21,-0.56,0.19,0.10,0.28,976.52
7.798,-0.55,0.84,-0.33,-0.79,0.21,-0.56,0.15,-0.04,0.55,976.52
7.799,-0.55,0.84,-0.33,-0.95,0.12,-0.51,0.15,-0.04,0.55,976.52
7.825,-0.46,0.80,-0.33,-0.95,0.12,-0.51,0.15,-0.04,0.55,976.52
7.826,-0.46,0.80,-0.33,-0.95,0.12,-0.51,0.15,-0.04,0.55,976.51
7.836,-0.52,0.88,-0.31,-0.95,0.12,-0.51,0.15,-0.04,0.55,976.51
7.839,-0.52,0.88,-0.31,-0.95,0.12,-0.51,0.13,-0.21,0.74,976.51
7.84,-0.52,0.88,-0.31,-0.93,-0.13,-0.19,0.13,-0.21,0.74,976.51
7.856,-0.56,0.90,-0.33,-0.93,-0.13,-0.19,0.13,-0.21,0.74,976.51
7.88,-0.52,0.84,-0.38,-0.93,-0.13,-0.19,0.13,-0.21,0.74,976.51
7.884,-0.52,0.84,-0.38,-0.93,-0.13,-0.19,0.10,-0.06,0.88,976.51
7.885,-0.52,0.84,-0.38,-0.76,0.11,-0.21,0.10,-0.06,0.88,976.51
7.887,-0.52,0.84,-0.38,-0.76,0.11,-0.21,0.10,-0.06,0.88,976.51
7.918,-0.34,0.88,-0.35,-0.76,0.11,-0.21,0.10,-0.06,0.88,976.51
7.921,-0.18,0.89,-0.38,-0.76,0.11,-0.21,0.10,-0.06,0.88,976.51
7.922,-0.18,0.89,-0.38,-0.76,0.11,-0.21,0.06,-0.32,0.99,976.51
7.923,-0.18,0.89,-0.38,-1.03,-0.05,-0.24,0.06,-0.32,0.99,976.51
7.936,-0.26,0.85,-0.38,-1.03,-0.05,-0.24,0.06,-0.32,0.99,976.51
7.939,-0.26,0.85,-0.38,-1.03,-0.05,-0.24,0.06,-0.32,0.99,976.51
7.956,-0.22,0.93,-0.24,-1.03,-0.05,-0.24,0.06,-0.32,0.99,976.51
7.958,-0.22,0.93,-0.24,-1.03,-0.05,-0.24,0.03,-0.27,0.83,976.51
7.96,-0.22,0.93,-0.24,1.35,-0.14,-0.57,0.03,-0.27,0.83,976.51
7.987,-0.26,0.90,-0.29,1.35,-0.14,-0.57,0.03,-0.27,0.83,976.51
7.995,-0.25,0.87,-0.25,1.35,-0.14,-0.57,0.03,-0.27,0.83,976.51
7.995,-0.25,0.87,-0.25,1.35,-0.14,-0.57,0.04,-0.13,0.54,976.51
7.996,-0.25,0.87,-0.25,1.34,0.00,0.50,0.04,-0.13,0.54,976.51
7.998,-0.25,0.87,-0.25,1.34,0.00,0.50,0.04,-0.13,0.54,976.51
8.014,-0.11,0.99,-0.35,1.34,0.00,0.50,0.04,-0.13,0.54,976.51
8.035,-0.10,0.97,-0.48,1.34,0.00,0.50,0.04,-0.13,0.54,976.51
8.037,-0.10,0.97,-0.48,1.34,0.00,0.50,0.10,-0.29,0.23,976.51
8.039,-0.10,0.97,-0.48,1.27,-0.02,0.48,0.10,-0.29,0.23,976.51
8.054,-0.15,0.94,-0.32,1.27,-0.02,0.48,0.10,-0.29,0.23,976.51
8.058,-0.15,0.94,-0.32,1.27,-0.02,0.48,0.10,-0.29,0.23,976.50
8.074,-0.28,0.97,-0.31,1.27,-0.02,0.48,0.10,-0.29,0.23,976.50
8.077,-0.28,0.97,-0.31,2.51,0.65,-0.75,0.10,-0.29,0.23,976.50
8.079,-0.28,0.97,-0.31,2.51,0.65,-0.75,0.02,-0.28,-0.15,976.50
8.106,-0.34,0.99,-0.31,2.51,0.65,-0.75,0.02,-0.28,-0.15,976.50
8.113,-0.35,1.00,-0.35,2.51,0.65,-0.75,0.02,-0.28,-0.15,976.50
8.114,-0.35,1.00,-0.35,2.51,0.65,-0.75,-0.05,-0.13,-0.42,976.50
8.116,-0.35,1.00,-0.35,0.67,0.93,-0.21,-0.05,-0.13,-0.42,976.50
8.153,-0.35,1.00,-0.35,0.67,0.93,-0.21,-0.05,-0.13,-0.42,976.51
8.155,-0.45,1.04,-0.38,0.67,0.93,-0.21,-0.05,-0.13,-0.42,976.51
8.155,-0.45,1.04,-0.38,0.85,0.98,-0.27,-0.05,-0.13,-0.42,976.51
8.156,-0.56,1.08,-0.38,0.85,0.98,-0.27,-0.05,-0.13,-0.42,976.51
8.157,-0.56,1.08,-0.38,0.85,0.98,-0.27,-0.10,-0.20,-0.50,976.51
8.173,-0.55,1.23,-0.33,0.85,0.98,-0.27,-0.10,-0.20,-0.50,976.51
8.177,-0.55,1.23,-0.33,0.85,0.98,-0.27,-0.10,-0.20,-0.50,976.52
8.2,-0.44,1.47,-0.28,0.85,0.98,-0.27,-0.10,-0.20,-0.50,976.52
8.205,-0.44,1.47,-0.28,0.85,0.98,-0.27,-0.15,-0.58,-0.32,976.52
8.206,-0.44,1.47,-0.28,-0.88,2.21,-0.80,-0.15,-0.58,-0.32,976.52
8.213,-0.28,1.75,-0.37,-0.88,2.21,-0.80,-0.15,-0.58,-0.32,976.52
8.24,0.11,1.59,-0.40,-0.88,2.21,-0.80,-0.15,-0.58,-0.32,976.52
8.242,0.11,1.59,-0.40,-0.88,2.21,-0.80,-0.23,-1.10,-0.15,976.52
8.243,0.11,1.59,-0.40,2.34,6.88,-0.92,-0.23,-1.10,-0.15,976.52
8.244,0.11,1.59,-0.40,2.34,6.88,-0.92,-0.23,-1.10,-0.15,976.51
8.251,0.39,1.36,-0.46,2.34,6.88,-0.92,-0.23,-1.10,-0.15,976.51
8.272,0.39,1.36,-0.46,2.53,6.81,-1.17,-0.23,-1.10,-0.15,976.51
8.274,0.73,1.54,-0.59,2.53,6.81,-1.17,-0.23,-1.10,-0.15,976.51
8.275,0.73,1.54,-0.59,2.53,6.81,-1.17,-0.22,-1.12,-0.38,976.51
8.304,0.06,1.97,-0.83,2.53,6.81,-1.17,-0.22,-1.12,-0.38,976.51
8.307,0.06,1.97,-0.83,2.53,6.81,-1.17,-0.22,-1.12,-0.38,976.52
8.311,0.06,1.97,-0.83,9.04,7.34,-3.80,-0.22,-1.12,-0.38,976.52
8.313,-1.82,2.13,-0.52,9.04,7.34,-3.80,-0.22,-1.12,-0.38,976.52
8.315,-1.82,2.13,-0.52,9.04,7.34,-3.80,-0.28,0.46,-2.46,976.52
8.337,-1.67,1.94,-0.44,9.04,7.34,-3.80,-0.28,0.46,-2.46,976.52
8.351,-0.89,1.81,-0.62,9.04,7.34,-3.80,-0.28,0.46,-2.46,976.52
8.354,-0.89,1.81,-0.62,9.04,7.34,-3.80,-0.02,0.69,-4.76,976.52
8.355,-0.89,1.81,-0.62,-7.57,11.53,-2.63,-0.02,0.69,-4.76,976.52
8.356,-0.89,1.81,-0.62,-7.57,11.53,-2.63,-0.02,0.69,-4.76,976.53
8.369,-1.05,1.51,-0.45,-7.57,11.53,-2.63,-0.02,0.69,-4.76,976.53
8.397,-1.05,1.51,-0.45,-5.99,12.78,-2.98,-0.02,0.69,-4.76,976.53
8.404,-1.04,1.18,-0.09,-5.99,12.78,-2.98,-0.02,0.69,-4.76,976.53
8.406,-1.04,1.18,-0.09,-5.99,12.78,-2.98,0.42,-1.70,-4.81,976.53
8.436,-0.62,1.05,0.06,-5.99,12.78,-2.98,0.42,-1.70,-4.81,976.53
8.438,-0.62,1.05,0.06,-5.99,12.78,-2.98,0.42,-1.70,-4.81,976.54
8.44,-0.24,0.81,0.10,-5.99,12.78,-2.98,0.42,-1.70,-4.81,976.54
8.441,-0.24,0.81,0.10,-5.99,12.78,-2.98,0.24,-2.22,-3.87,976.54
8.443,-0.24,0.81,0.10,0.52,7.07,-0.10,0.24,-2.22,-3.87,976.54
8.449,-0.13,0.54,0.04,0.52,7.07,-0.10,0.24,-2.22,-3.87,976.54
8.489,-0.16,0.39,-0.04,0.52,7.07,-0.10,0.24,-2.22,-3.87,976.54
8.492,-0.16,0.39,-0.04,0.52,7.07,-0.10,-0.13,-0.92,-2.79,976.54
8.493,-0.16,0.39,-0.04,8.07,1.56,1.40,-0.13,-0.92,-2.79,976.54
8.494,-0.16,0.39,-0.04,8.07,1.56,1.40,-0.13,-0.92,-2.79,976.52
8.495,-0.19,0.36,-0.08,8.07,1.56,1.40,-0.13,-0.92,-2.79,976.52
8.528,-0.24,0.35,-0.07,8.07,1.56,1.40,-0.13,-0.92,-2.79,976.52
8.529,-0.24,0.35,-0.07,8.07,1.56,1.40,-0.21,0.84,-1.66,976.52
8.53,-0.24,0.35,-0.07,8.14,2.16,1.67,-0.21,0.84,-1.66,976.52
8.532,-0.24,0.34,-0.03,8.14,2.16,1.67,-0.21,0.84,-1.66,976.52
8.538,-0.24,0.34,-0.03,8.14,2.16,1.67,-0.21,0.84,-1.66,976.50
8.547,-0.16,0.32,0.01,8.14,2.16,1.67,-0.21,0.84,-1.66,976.50
8.549,-0.16,0.32,0.01,8.14,2.16,1.67,-0.08,0.57,0.06,976.50
8.551,-0.16,0.32,0.01,7.50,-0.12,0.97,-0.08,0.57,0.06,976.50
8.587,-0.04,0.33,-0.01,7.50,-0.12,0.97,-0.08,0.57,0.06,976.50
8.593,0.08,0.29,-0.06,7.50,-0.12,0.97,-0.08,0.57,0.06,976.50
8.595,0.08,0.29,-0.06,7.50,-0.12,0.97,-0.19,0.08,2.04,976.50
8.597,0.08,0.29,-0.06,8.83,-1.23,1.32,-0.19,0.08,2.04,976.50
8.6,0.08,0.29,-0.06,8.83,-1.23,1.32,-0.19,0.08,2.04,976.49
8.62,0.05,0.19,-0.10,8.83,-1.23,1.32,-0.19,0.08,2.04,976.49
8.626,-0.03,0.13,-0.04,8.83,-1.23,1.32,-0.19,0.08,2.04,976.49
8.627,-0.03,0.13,-0.04,8.83,-1.23,1.32,-0.23,0.27,3.62,976.49
8.628,-0.03,0.13,-0.04,7.97,-2.47,1.35,-0.23,0.27,3.62,976.49
8.646,-0.03,0.09,0.02,7.97,-2.47,1.35,-0.23,0.27,3.62,976.49
8.657,-0.03,0.09,0.02,7.97,-2.47,1.35,-0.23,0.27,3.62,976.48
8.666,-0.02,0.07,0.03,7.97,-2.47,1.35,-0.23,0.27,3.62,976.48
8.668,-0.02,0.07,0.03,7.97,-2.47,1.35,-0.13,0.41,4.62,976.48
8.669,-0.02,0.07,0.03,7.04,-5.55,1.18,-0.13,0.41,4.62,976.48
8.709,-0.12,0.13,-0.01,7.04,-5.55,1.18,-0.13,0.41,4.62,976.48
8.711,-0.39,0.23,-0.13,7.04,-5.55,1.18,-0.13,0.41,4.62,976.48
8.712,-0.39,0.23,-0.13,7.04,-5.55,1.18,-0.12,0.74,5.04,976.48
8.712,-0.39,0.23,-0.13,3.71,-6.62,1.35,-0.12,0.74,5.04,976.48
8.716,-0.39,0.23,-0.13,3.71,-6.62,1.35,-0.12,0.74,5.04,976.48
8.739,-0.62,0.39,-0.20,3.71,-6.62,1.35,-0.12,0.74,5.04,976.48
8.745,-0.85,0.61,-0.29,3.71,-6.62,1.35,-0.12,0.74,5.04,976.48
8.746,-0.85,0.61,-0.29,3.71,-6.62,1.35,-0.27,1.08,4.88,976.48
8.747,-0.85,0.61,-0.29,1.96,-7.41,1.43,-0.27,1.08,4.88,976.48
8.765,-1.04,0.74,-0.24,1.96,-7.41,1.43,-0.27,1.08,4.88,976.48
8.785,-1.04,0.74,-0.24,1.96,-7.41,1.43,-0.27,1.08,4.88,976.47
8.788,-1.07,0.88,-0.20,1.96,-7.41,1.43,-0.27,1.08,4.88,976.47
8.79,-1.07,0.88,-0.20,1.96,-7.41,1.43,-0.25,0.47,4.31,976.47
8.791,-1.07,0.88,-0.20,-5.96,-3.59,-0.58,-0.25,0.47,4.31,976.47
8.818,-1.08,1.03,-0.18,-5.96,-3.59,-0.58,-0.25,0.47,4.31,976.47
8.824,-1.02,1.07,-0.17,-5.96,-3.59,-0.58,-0.25,0.47,4.31,976.47
8.825,-1.02,1.07,-0.17,-5.96,-3.59,-0.58,-0.20,0.17,3.13,976.47
8.825,-1.02,1.07,-0.17,-9.13,0.22,-0.08,-0.20,0.17,3.13,976.47
8.836,-1.02,1.07,-0.17,-9.13,0.22,-0.08,-0.20,0.17,3.13,976.46
8.843,-0.99,1.08,-0.25,-9.13,0.22,-0.08,-0.20,0.17,3.13,976.46
8.864,-0.95,0.98,-0.38,-9.13,0.22,-0.08,-0.20,0.17,3.13,976.46
8.867,-0.95,0.98,-0.38,-9.13,0.22,-0.08,-0.41,0.78,1.38,976.46
8.868,-0.95,0.98,-0.38,-9.54,0.14,-0.20,-0.41,0.78,1.38,976.46
8.89,-0.86,0.80,-0.39,-9.54,0.14,-0.20,-0.41,0.78,1.38,976.46
8.896,-0.86,0.80,-0.39,-9.54,0.14,-0.20,-0.41,0.78,1.38,976.46
8.921,-0.78,0.59,-0.41,-9.54,0.14,-0.20,-0.41,0.78,1.38,976.46
8.922,-0.78,0.59,-0.41,-9.54,0.14,-0.20,-0.53,1.13,-0.22,976.46
8.923,-0.78,0.59,-0.41,-8.23,-0.25,-1.87,-0.53,1.13,-0.22,976.46
8.924,-0.67,0.22,-0.43,-8.23,-0.25,-1.87,-0.53,1.13,-0.22,976.46
8.943,-0.33,0.27,-0.55,-8.23,-0.25,-1.87,-0.53,1.13,-0.22,976.46
8.948,-0.33,0.27,-0.55,-8.23,-0.25,-1.87,-0.19,0.77,-0.88,976.46
8.95,-0.33,0.27,-0.55,-4.47,-5.93,-3.06,-0.19,0.77,-0.88,976.46
8.958,-0.33,0.27,-0.55,-4.47,-5.93,-3.06,-0.19,0.77,-0.88,976.46
8.963,-0.15,3.65,-0.14,-4.47,-5.93,-3.06,-0.19,0.77,-0.88,976.46
8.983,0.41,3.96,-0.04,-4.47,-5.93,-3.06,-0.19,0.77,-0.88,976.46
8.986,0.41,3.96,-0.04,-4.47,-5.93,-3.06,-0.48,-0.13,-0.01,976.46
8.988,0.41,3.96,-0.04,-4.38,-5.86,-3.20,-0.48,-0.13,-0.01,976.46
9.013,-1.18,-0.16,-0.43,-4.38,-5.86,-3.20,-0.48,-0.13,-0.01,976.46
9.017,-1.18,-0.16,-0.43,-4.38,-5.86,-3.20,-0.48,-0.13,-0.01,976.47
9.046,-0.69,-1.02,0.00,-4.38,-5.86,-3.20,-0.48,-0.13,-0.01,976.47
9.048,-0.69,-1.02,0.00,-4.38,-5.86,-3.20,0.63,1.21,-1.50,976.47
9.048,-0.69,-1.02,0.00,-1.12,14.80,-0.34,0.63,1.21,-1.50,976.47
9.049,0.14,1.08,-0.50,-1.12,14.80,-0.34,0.63,1.21,-1.50,976.47
9.06,-0.33,2.09,-0.02,-1.12,14.80,-0.34,0.63,1.21,-1.50,976.47
9.061,-0.33,2.09,-0.02,-1.12,14.80,-0.34,0.42,-0.44,-1.67,976.47
9.061,-0.33,2.09,-0.02,-0.31,-2.30,0.07,0.42,-0.44,-1.67,976.47
9.078,-0.33,2.09,-0.02,-0.31,-2.30,0.07,0.42,-0.44,-1.67,976.49
9.081,-0.49,0.79,-0.26,-0.31,-2.30,0.07,0.42,-0.44,-1.67,976.49
9.1,-0.44,0.44,-0.14,-0.31,-2.30,0.07,0.42,-0.44,-1.67,976.49
9.101,-0.44,0.44,-0.14,-0.31,-2.30,0.07,0.19,0.37,-1.45,976.49
9.101,-0.44,0.44,-0.14,0.19,-2.09,0.18,0.19,0.37,-1.45,976.49
9.119,-0.47,1.05,-0.08,0.19,-2.09,0.18,0.19,0.37,-1.45,976.49
9.137,-0.47,1.05,-0.08,0.19,-2.09,0.18,0.19,0.37,-1.45,976.49
9.14,-0.47,1.01,-0.23,0.19,-2.09,0.18,0.19,0.37,-1.45,976.49
9.141,-0.47,1.01,-0.23,0.19,-2.09,0.18,0.37,0.46,-1.29,976.49
9.142,-0.47,1.01,-0.23,-1.09,-1.39,0.52,0.37,0.46,-1.29,976.49
9.16,-0.71,0.75,-0.22,-1.09,-1.39,0.52,0.37,0.46,-1.29,976.49
9.18,-0.66,0.91,-0.17,-1.09,-1.39,0.52,0.37,0.46,-1.29,976.49
9.181,-0.66,0.91,-0.17,-1.09,-1.39,0.52,0.51,-0.02,-0.98,976.49
9.181,-0.66,0.91,-0.17,-2.13,0.03,0.24,0.51,-0.02,-0.98,976.49
9.2,-0.66,0.91,-0.17,-2.13,0.03,0.24,0.51,-0.02,-0.98,976.47
9.204,-0.54,0.92,-0.26,-2.13,0.03,0.24,0.51,-0.02,-0.98,976.47
9.231,-0.54,0.92,-0.26,-1.87,0.16,0.36,0.51,-0.02,-0.98,976.47
9.234,-0.57,0.88,-0.26,-1.87,0.16,0.36,0.51,-0.02,-0.98,976.47
9.235,-0.57,0.88,-0.26,-1.87,0.16,0.36,0.60,-0.51,-0.52,976.47
9.239,-0.58,0.89,-0.25,-1.87,0.16,0.36,0.60,-0.51,-0.52,976.47
9.254,-0.58,0.89,-0.25,-1.87,0.16,0.36,0.60,-0.51,-0.52,976.45
9.259,-0.44,0.96,-0.31,-1.87,0.16,0.36,0.60,-0.51,-0.52,976.45
9.261,-0.44,0.96,-0.31,-1.87,0.16,0.36,0.63,-0.45,-0.14,976.45
9.262,-0.44,0.96,-0.31,-1.28,0.33,-0.01,0.63,-0.45,-0.14,976.45
9.278,-0.45,0.93,-0.43,-1.28,0.33,-0.01,0.63,-0.45,-0.14,976.45
9.305,-0.49,0.88,-0.44,-1.28,0.33,-0.01,0.63,-0.45,-0.14,976.45
9.308,-0.49,0.88,-0.44,-1.28,0.33,-0.01,0.55,-0.21,0.06,976.45
9.309,-0.49,0.88,-0.44,-0.28,0.61,-1.20,0.55,-0.21,0.06,976.45
9.315,-0.49,0.88,-0.44,-0.28,0.61,-1.20,0.55,-0.21,0.06,976.45
9.318,-0.43,0.90,-0.39,-0.28,0.61,-1.20,0.55,-0.21,0.06,976.45
9.338,-0.37,0.87,-0.33,-0.28,0.61,-1.20,0.55,-0.21,0.06,976.45
9.34,-0.37,0.87,-0.33,-0.28,0.61,-1.20,0.30,-0.07,0.17,976.45
9.342,-0.37,0.87,-0.33,-0.32,0.60,-1.09,0.30,-0.07,0.17,976.45
9.358,-0.37,0.91,-0.22,-0.32,0.60,-1.09,0.30,-0.07,0.17,976.45
9.375,-0.37,0.91,-0.22,-0.32,0.60,-1.09,0.30,-0.07,0.17,976.46
9.378,-0.27,1.03,-0.23,-0.32,0.60,-1.09,0.30,-0.07,0.17,976.46
9.379,-0.27,1.03,-0.23,-0.32,0.60,-1.09,0.22,-0.20,0.13,976.46
9.379,-0.27,1.03,-0.23,0.33,0.32,-0.26,0.22,-0.20,0.13,976.46
9.397,-0.24,0.94,-0.31,0.33,0.32,-0.26,0.22,-0.20,0.13,976.46
9.422,-0.29,0.86,-0.31,0.33,0.32,-0.26,0.22,-0.20,0.13,976.46
9.423,-0.29,0.86,-0.31,0.33,0.32,-0.26,0.27,-0.34,-0.15,976.46
9.424,-0.29,0.86,-0.31,1.65,0.86,0.07,0.27,-0.34,-0.15,976.46
9.434,-0.29,0.86,-0.31,1.65,0.86,0.07,0.27,-0.34,-0.15,976.47
9.437,-0.27,0.88,-0.24,1.65,0.86,0.07,0.27,-0.34,-0.15,976.47
9.458,-0.27,0.88,-0.24,1.82,0.97,0.11,0.27,-0.34,-0.15,976.47
9.461,-0.25,0.90,-0.27,1.82,0.97,0.11,0.27,-0.34,-0.15,976.47
9.465,-0.25,0.90,-0.27,1.82,0.97,0.11,0.26,-0.24,-0.53,976.47
9.477,-0.34,0.85,-0.23,1.82,0.97,0.11,0.26,-0.24,-0.53,976.47
9.512,-0.34,0.85,-0.23,1.82,0.97,0.11,0.26,-0.24,-0.53,976.47
9.514,-0.40,0.90,-0.20,1.82,0.97,0.11,0.26,-0.24,-0.53,976.47
9.515,-0.40,0.90,-0.20,1.82,0.97,0.11,0.25,-0.05,-0.88,976.47
9.516,-0.40,0.90,-0.20,1.85,0.46,0.53,0.25,-0.05,-0.88,976.47
9.518,-0.43,0.82,-0.28,1.85,0.46,0.53,0.25,-0.05,-0.88,976.47
9.535,-0.52,0.86,-0.46,1.85,0.46,0.53,0.25,-0.05,-0.88,976.47
9.537,-0.52,0.86,-0.46,1.85,0.46,0.53,0.23,0.16,-1.13,976.47
9.538,-0.52,0.86,-0.46,0.61,0.56,-0.03,0.23,0.16,-1.13,976.47
9.554,-0.52,0.86,-0.46,0.61,0.56,-0.03,0.23,0.16,-1.13,976.48
9.555,-0.62,1.09,-0.57,0.61,0.56,-0.03,0.23,0.16,-1.13,976.48
9.576,-0.61,1.20,-0.61,0.61,0.56,-0.03,0.23,0.16,-1.13,976.48
9.579,-0.61,1.20,-0.61,0.61,0.56,-0.03,0.19,-0.10,-1.17,976.48
9.581,-0.61,1.20,-0.61,0.97,0.81,0.01,0.19,-0.10,-1.17,976.48
9.611,-0.54,1.33,-0.60,0.97,0.81,0.01,0.19,-0.10,-1.17,976.48
9.614,-0.54,1.33,-0.60,0.97,0.81,0.01,0.19,-0.10,-1.17,976.49
9.615,-0.48,1.56,-0.50,0.97,0.81,0.01,0.19,-0.10,-1.17,976.49
9.615,-0.48,1.56,-0.50,0.97,0.81,0.01,0.08,-0.84,-1.07,976.49
9.616,-0.48,1.56,-0.50,-0.02,4.35,-2.85,0.08,-0.84,-1.07,976.49
9.67,-0.38,1.71,-0.41,-0.02,4.35,-2.85,0.08,-0.84,-1.07,976.49
9.673,-0.24,1.94,-0.23,-0.02,4.35,-2.85,0.08,-0.84,-1.07,976.49
9.676,-0.24,1.94,-0.23,-0.02,4.35,-2.85,-0.06,-1.44,-1.09,976.49
9.678,-0.24,1.94,-0.23,2.63,9.63,-1.06,-0.06,-1.44,-1.09,976.49
9.68,-0.24,1.94,-0.23,2.63,9.63,-1.06,-0.06,-1.44,-1.09,976.48
9.683,0.13,1.94,-0.19,2.63,9.63,-1.06,-0.06,-1.44,-1.09,976.48
9.696,0.45,1.75,-0.42,2.63,9.63,-1.06,-0.06,-1.44,-1.09,976.48
9.697,0.45,1.75,-0.42,2.63,9.63,-1.06,-0.15,-1.64,-1.08,976.48
9.697,0.45,1.75,-0.42,3.04,9.73,-1.49,-0.15,-1.64,-1.08,976.48
9.715,0.62,1.77,-0.68,3.04,9.73,-1.49,-0.15,-1.64,-1.08,976.48
9.737,-0.46,1.79,-0.51,3.04,9.73,-1.49,-0.15,-1.64,-1.08,976.48
9.739,-0.46,1.79,-0.51,3.04,9.73,-1.49,-0.14,-0.12,-1.86,976.48
9.741,-0.46,1.79,-0.51,10.89,10.87,-2.01,-0.14,-0.12,-1.86,976.48
9.743,-0.46,1.79,-0.51,10.89,10.87,-2.01,-0.14,-0.12,-1.86,976.48
9.752,-0.81,1.87,-0.13,10.89,10.87,-2.01,-0.14,-0.12,-1.86,976.48
9.783,-0.78,1.76,-0.20,10.89,10.87,-2.01,-0.14,-0.12,-1.86,976.48
9.784,-0.78,1.76,-0.20,10.89,10.87,-2.01,-0.10,1.00,-3.46,976.48
9.786,-0.78,1.76,-0.20,1.03,11.54,-0.28,-0.10,1.00,-3.46,976.48
9.823,-0.55,1.47,-0.54,1.03,11.54,-0.28,-0.10,1.00,-3.46,976.48
9.826,-0.55,1.47,-0.54,1.03,11.54,-0.28,-0.10,1.00,-3.46,976.48
9.827,-0.39,1.19,-0.37,1.03,11.54,-0.28,-0.10,1.00,-3.46,976.48
9.83,-0.39,1.19,-0.37,1.03,11.54,-0.28,0.05,-0.11,-2.94,976.48
9.831,-0.39,1.19,-0.37,1.67,12.28,-0.30,0.05,-0.11,-2.94,976.48
9.832,-0.69,0.93,-0.47,1.67,12.28,-0.30,0.05,-0.11,-2.94,976.48
9.852,-1.25,0.66,-0.44,1.67,12.28,-0.30,0.05,-0.11,-2.94,976.48
9.854,-1.25,0.66,-0.44,1.67,12.28,-0.30,0.01,0.21,-2.01,976.48
9.855,-1.25,0.66,-0.44,3.38,6.85,-1.98,0.01,0.21,-2.01,976.48
9.855,-1.25,0.66,-0.44,3.38,6.85,-1.98,0.01,0.21,-2.01,976.48
9.889,-1.23,0.35,-0.33,3.38,6.85,-1.98,0.01,0.21,-2.01,976.48
9.892,-1.04,0.18,-0.40,3.38,6.85,-1.98,0.01,0.21,-2.01,976.48
9.893,-1.04,0.18,-0.40,3.38,6.85,-1.98,-0.12,-0.22,-0.73,976.48
9.893,-1.04,0.18,-0.40,-2.62,-0.73,-1.37,-0.12,-0.22,-0.73,976.48
9.921,-0.94,0.11,-0.33,-2.62,-0.73,-1.37,-0.12,-0.22,-0.73,976.48
9.924,-0.94,0.11,-0.33,-2.62,-0.73,-1.37,-0.12,-0.22,-0.73,976.47
9.93,-0.75,-0.03,-0.22,-2.62,-0.73,-1.37,-0.12,-0.22,-0.73,976.47
9.931,-0.75,-0.03,-0.22,-2.62,-0.73,-1.37,-0.26,-1.68,1.10,976.47
9.932,-0.75,-0.03,-0.22,-2.64,-1.12,-1.98,-0.26,-1.68,1.10,976.47
9.95,-0.62,-0.16,-0.22,-2.64,-1.12,-1.98,-0.26,-1.68,1.10,976.47
9.97,-0.54,-0.16,-0.18,-2.64,-1.12,-1.98,-0.26,-1.68,1.10,976.47
9.973,-0.54,-0.16,-0.18,-2.64,-1.12,-1.98,-0.25,-1.74,2.58,976.47
9.975,-0.54,-0.16,-0.18,0.86,-6.06,-1.27,-0.25,-1.74,2.58,976.47
9.977,-0.54,-0.16,-0.18,0.86,-6.06,-1.27,-0.25,-1.74,2.58,976.45
9.995,-0.29,-0.05,-0.05,0.86,-6.06,-1.27,-0.25,-1.74,2.58,976.45
10.04,-0.08,0.04,0.03,0.86,-6.06,-1.27,-0.25,-1.74,2.58,976.45
10.042,-0.08,0.04,0.03,0.86,-6.06,-1.27,-0.06,-1.30,3.62,976.45
10.043,-0.08,0.04,0.03,4.51,-7.37,0.15,-0.06,-1.30,3.62,976.45
10.045,-0.01,0.10,0.16,4.51,-7.37,0.15,-0.06,-1.30,3.62,976.45
10.045,-0.01,0.10,0.16,4.51,-7.37,0.15,-0.06,-1.30,3.62,976.44
10.048,-0.34,0.09,-0.06,4.51,-7.37,0.15,-0.06,-1.30,3.62,976.44
10.049,-0.34,0.09,-0.06,4.51,-7.37,0.15,-0.05,0.90,4.06,976.44
10.05,-0.34,0.09,-0.06,3.24,-8.34,0.36,-0.05,0.90,4.06,976.44
10.068,-0.66,0.11,-0.29,3.24,-8.34,0.36,-0.05,0.90,4.06,976.44
10.091,-0.85,0.09,-0.40,3.24,-8.34,0.36,-0.05,0.90,4.06,976.44
10.095,-0.85,0.09,-0.40,3.24,-8.34,0.36,-0.45,3.59,3.85,976.44
10.095,-0.85,0.09,-0.40,1.43,-7.54,0.97,-0.45,3.59,3.85,976.44
10.096,-0.85,0.09,-0.40,1.43,-7.54,0.97,-0.45,3.59,3.85,976.43
10.127,-1.12,0.05,-0.44,1.43,-7.54,0.97,-0.45,3.59,3.85,976.43
10.128,-1.37,0.08,-0.33,1.43,-7.54,0.97,-0.45,3.59,3.85,976.43
10.13,-1.37,0.08,-0.33,1.43,-7.54,0.97,-0.68,2.94,3.39,976.43
10.131,-1.37,0.08,-0.33,-7.43,-8.27,-1.94,-0.68,2.94,3.39,976.43
10.147,-1.81,0.11,-0.46,-7.43,-8.27,-1.94,-0.68,2.94,3.39,976.43
10.152,-1.81,0.11,-0.46,-7.43,-8.27,-1.94,-0.68,2.94,3.39,976.42
10.167,-1.61,0.14,-0.38,-7.43,-8.27,-1.94,-0.68,2.94,3.39,976.42
10.17,-1.61,0.14,-0.38,-7.43,-8.27,-1.94,-0.60,1.42,2.43,976.42
10.172,-1.61,0.14,-0.38,-8.27,-8.45,-1.95,-0.60,1.42,2.43,976.42
10.187,-1.17,0.12,-0.33,-8.27,-8.45,-1.95,-0.60,1.42,2.43,976.42
10.21,-1.02,-0.08,-0.31,-8.27,-8.45,-1.95,-0.60,1.42,2.43,976.42
10.215,-1.02,-0.08,-0.31,-8.27,-8.45,-1.95,-0.34,0.76,1.02,976.42
10.216,-1.02,-0.08,-0.31,-12.55,-7.94,-1.95,-0.34,0.76,1.02,976.42
10.217,-1.02,-0.08,-0.31,-12.55,-7.94,-1.95,-0.34,0.76,1.02,976.42
10.233,-0.74,-0.10,-0.48,-12.55,-7.94,-1.95,-0.34,0.76,1.02,976.42
10.245,-0.99,3.76,-1.89,-12.55,-7.94,-1.95,-0.34,0.76,1.02,976.42
10.247,-0.99,3.76,-1.89,-12.55,-7.94,-1.95,0.13,1.78,-0.39,976.42
10.247,-0.99,3.76,-1.89,-6.43,2.53,-6.59,0.13,1.78,-0.39,976.42
10.265,-3.95,2.03,2.51,-6.43,2.53,-6.59,0.13,1.78,-0.39,976.42
10.275,-3.95,2.03,2.51,-6.43,2.53,-6.59,0.13,1.78,-0.39,976.42
10.287,-0.21,-0.62,-1.17,-6.43,2.53,-6.59,0.13,1.78,-0.39,976.42
10.289,-0.21,-0.62,-1.17,-6.43,2.53,-6.59,-0.23,1.52,-2.75,976.42
10.291,-0.21,-0.62,-1.17,-5.49,2.79,-6.39,-0.23,1.52,-2.75,976.42
10.33,0.54,-0.36,-1.00,-5.49,2.79,-6.39,-0.23,1.52,-2.75,976.42
10.332,-0.24,1.58,0.62,-5.49,2.79,-6.39,-0.23,1.52,-2.75,976.42
10.332,-0.24,1.58,0.62,-5.49,2.79,-6.39,0.72,-0.95,0.03,976.42
10.333,-0.24,1.58,0.62,-8.11,-5.32,3.55,0.72,-0.95,0.03,976.42
10.334,-0.24,1.58,0.62,-8.11,-5.32,3.55,0.72,-0.95,0.03,976.42
10.364,-0.94,1.68,-0.55,-8.11,-5.32,3.55,0.72,-0.95,0.03,976.42
10.367,-0.73,0.54,-0.18,-8.11,-5.32,3.55,0.72,-0.95,0.03,976.42
10.369,-0.73,0.54,-0.18,-8.11,-5.32,3.55,0.07,0.28,-0.40,976.42
10.37,-0.73,0.54,-0.18,-2.38,3.69,2.11,0.07,0.28,-0.40,976.42
10.384,-0.42,0.75,-0.19,-2.38,3.69,2.11,0.07,0.28,-0.40,976.42
10.404,-0.42,0.75,-0.19,-2.38,3.69,2.11,0.07,0.28,-0.40,976.42
10.405,-0.43,1.04,-0.39,-2.38,3.69,2.11,0.07,0.28,-0.40,976.42
10.406,-0.43,1.04,-0.39,-2.38,3.69,2.11,0.29,0.22,-0.09,976.42
10.407,-0.43,1.04,-0.39,-2.33,3.67,2.20,0.29,0.22,-0.09,976.42
10.432,-0.60,0.90,-0.28,-2.33,3.67,2.20,0.29,0.22,-0.09,976.42
10.444,-0.53,0.86,-0.38,-2.33,3.67,2.20,0.29,0.22,-0.09,976.42
10.445,-0.53,0.86,-0.38,-2.33,3.67,2.20,0.31,-0.15,0.27,976.42
10.446,-0.53,0.86,-0.38,-0.90,0.03,-0.17,0.31,-0.15,0.27,976.42
10.451,-0.53,0.86,-0.38,-0.90,0.03,-0.17,0.31,-0.15,0.27,976.42
10.463,-0.38,0.90,-0.32,-0.90,0.03,-0.17,0.31,-0.15,0.27,976.42
10.484,-0.34,0.93,-0.25,-0.90,0.03,-0.17,0.31,-0.15,0.27,976.42
10.487,-0.34,0.93,-0.25,-0.90,0.03,-0.17,0.21,-0.32,0.51,976.42
10.488,-0.34,0.93,-0.25,-0.38,0.00,-0.42,0.21,-0.32,0.51,976.42
10.512,-0.41,0.89,-0.34,-0.38,0.00,-0.42,0.21,-0.32,0.51,976.42
10.521,-0.41,0.89,-0.34,-0.38,0.00,-0.42,0.21,-0.32,0.51,976.42
10.539,-0.41,0.88,-0.28,-0.38,0.00,-0.42,0.21,-0.32,0.51,976.42
10.541,-0.41,0.88,-0.28,-0.38,0.00,-0.42,0.16,-0.24,0.60,976.42
10.541,-0.41,0.88,-0.28,-0.56,-0.07,-0.40,0.16,-0.24,0.60,976.42
10.542,-0.28,0.93,-0.27,-0.56,-0.07,-0.40,0.16,-0.24,0.60,976.42
10.561,-0.26,0.92,-0.31,-0.56,-0.07,-0.40,0.16,-0.24,0.60,976.42
10.563,-0.26,0.92,-0.31,-0.56,-0.07,-0.40,0.15,-0.26,0.64,976.42
10.565,-0.26,0.92,-0.31,-0.27,-0.11,-0.18,0.15,-0.26,0.64,976.42
10.571,-0.26,0.92,-0.31,-0.27,-0.11,-0.18,0.15,-0.26,0.64,976.43
10.583,-0.28,0.92,-0.28,-0.27,-0.11,-0.18,0.15,-0.26,0.64,976.43
10.603,-0.12,0.96,-0.32,-0.27,-0.11,-0.18,0.15,-0.26,0.64,976.43
10.605,-0.12,0.96,-0.32,-0.27,-0.11,-0.18,0.14,-0.29,0.57,976.43
10.606,-0.12,0.96,-0.32,0.99,0.12,-0.22,0.14,-0.29,0.57,976.43
10.628,-0.12,0.89,-0.36,0.99,0.12,-0.22,0.14,-0.29,0.57,976.43
10.631,-0.12,0.89,-0.36,0.99,0.12,-0.22,0.14,-0.29,0.57,976.44
10.641,-0.20,0.93,-0.24,0.99,0.12,-0.22,0.14,-0.29,0.57,976.44
10.642,-0.20,0.93,-0.24,0.99,0.12,-0.22,0.09,-0.21,0.33,976.44
10.643,-0.20,0.93,-0.24,0.88,0.09,-0.21,0.09,-0.21,0.33,976.44
10.661,-0.11,1.05,-0.26,0.88,0.09,-0.21,0.09,-0.21,0.33,976.44
10.682,-0.02,1.03,-0.35,0.88,0.09,-0.21,0.09,-0.21,0.33,976.44
10.685,-0.02,1.03,-0.35,0.88,0.09,-0.21,0.08,-0.24,0.03,976.44
10.687,-0.02,1.03,-0.35,1.58,0.36,-0.07,0.08,-0.24,0.03,976.44
10.712,-0.02,1.03,-0.35,1.58,0.36,-0.07,0.08,-0.24,0.03,976.46
10.713,-0.05,0.98,-0.39,1.58,0.36,-0.07,0.08,-0.24,0.03,976.46
10.72,-0.25,1.03,-0.34,1.58,0.36,-0.07,0.08,-0.24,0.03,976.46
10.721,-0.25,1.03,-0.34,1.58,0.36,-0.07,0.05,-0.32,-0.37,976.46
10.722,-0.25,1.03,-0.34,2.14,0.90,-0.79,0.05,-0.32,-0.37,976.46
10.742,-0.39,1.05,-0.30,2.14,0.90,-0.79,0.05,-0.32,-0.37,976.46
10.751,-0.39,1.05,-0.30,2.14,0.90,-0.79,0.05,-0.32,-0.37,976.45
10.761,-0.45,1.12,-0.26,2.14,0.90,-0.79,0.05,-0.32,-0.37,976.45
10.763,-0.45,1.12,-0.26,2.14,0.90,-0.79,-0.09,-0.07,-0.63,976.45
10.765,-0.45,1.12,-0.26,2.33,0.95,-0.82,-0.09,-0.07,-0.63,976.45
10.78,-0.59,1.32,-0.25,2.33,0.95,-0.82,-0.09,-0.07,-0.63,976.45
10.813,-0.73,1.55,-0.25,2.33,0.95,-0.82,-0.09,-0.07,-0.63,976.45
10.814,-0.73,1.55,-0.25,2.33,0.95,-0.82,-0.14,-0.30,-0.49,976.45
10.815,-0.73,1.55,-0.25,-1.10,2.47,-0.02,-0.14,-0.30,-0.49,976.45
10.816,-0.73,1.55,-0.25,-1.10,2.47,-0.02,-0.14,-0.30,-0.49,976.45
10.82,-0.44,1.84,-0.53,-1.10,2.47,-0.02,-0.14,-0.30,-0.49,976.45
10.848,0.15,1.80,-0.69,-1.10,2.47,-0.02,-0.14,-0.30,-0.49,976.45
10.85,0.15,1.80,-0.69,-1.10,2.47,-0.02,-0.20,-1.00,0.03,976.45
10.851,0.15,1.80,-0.69,0.33,7.82,-2.34,-0.20,-1.00,0.03,976.45
10.859,0.78,1.43,-0.72,0.33,7.82,-2.34,-0.20,-1.00,0.03,976.45
10.871,0.78,1.43,-0.72,0.33,7.82,-2.34,-0.20,-1.00,0.03,976.44
10.88,0.78,1.43,-0.72,0.34,7.63,-2.53,-0.20,-1.00,0.03,976.44
10.883,1.69,1.81,-0.77,0.34,7.63,-2.53,-0.20,-1.00,0.03,976.44
10.885,1.69,1.81,-0.77,0.34,7.63,-2.53,-0.14,-1.29,0.29,976.44
10.912,0.06,2.62,-0.77,0.34,7.63,-2.53,-0.14,-1.29,0.29,976.44
10.918,-2.05,2.27,-0.47,0.34,7.63,-2.53,-0.14,-1.29,0.29,976.44
10.919,-2.05,2.27,-0.47,0.34,7.63,-2.53,-0.25,0.35,-3.17,976.44
10.92,-2.05,2.27,-0.47,12.82,10.16,-5.07,-0.25,0.35,-3.17,976.44
10.947,-2.05,2.27,-0.47,12.82,10.16,-5.07,-0.25,0.35,-3.17,976.44
10.949,-1.89,1.63,-0.35,12.82,10.16,-5.07,-0.25,0.35,-3.17,976.44
10.96,-0.59,1.50,-0.36,12.82,10.16,-5.07,-0.25,0.35,-3.17,976.44
10.961,-0.59,1.50,-0.36,12.82,10.16,-5.07,0.14,0.15,-5.58,976.44
10.962,-0.59,1.50,-0.36,-8.28,9.74,-1.45,0.14,0.15,-5.58,976.44
10.977,-0.22,1.29,-0.06,-8.28,9.74,-1.45,0.14,0.15,-5.58,976.44
11.012,-0.22,1.29,-0.06,-8.28,9.74,-1.45,0.14,0.15,-5.58,976.43
11.014,-0.04,0.90,0.32,-8.28,9.74,-1.45,0.14,0.15,-5.58,976.43
11.014,-0.04,0.90,0.32,-6.86,10.67,-1.96,0.14,0.15,-5.58,976.43
11.015,-0.04,0.90,0.32,-6.86,10.67,-1.96,0.51,-2.40,-3.77,976.43
11.017,0.09,0.58,0.32,-6.86,10.67,-1.96,0.51,-2.40,-3.77,976.43
11.046,0.03,0.31,0.21,-6.86,10.67,-1.96,0.51,-2.40,-3.77,976.43
11.048,0.03,0.31,0.21,-6.86,10.67,-1.96,0.30,-1.38,-2.39,976.43
11.049,0.03,0.31,0.21,7.95,2.82,3.34,0.30,-1.38,-2.39,976.43
11.05,0.03,0.31,0.21,7.95,2.82,3.34,0.30,-1.38,-2.39,976.43
11.06,-0.03,0.06,0.15,7.95,2.82,3.34,0.30,-1.38,-2.39,976.43
11.077,-0.06,0.01,0.15,7.95,2.82,3.34,0.30,-1.38,-2.39,976.43
11.08,-0.06,0.01,0.15,7.95,2.82,3.34,0.30,0.18,-0.96,976.43
11.081,-0.06,0.01,0.15,8.39,-4.53,3.23,0.30,0.18,-0.96,976.43
11.096,-0.05,0.07,0.12,8.39,-4.53,3.23,0.30,0.18,-0.96,976.43
11.132,-0.05,0.07,0.12,8.39,-4.53,3.23,0.30,0.18,-0.96,976.43
11.133,-0.06,0.06,0.12,8.39,-4.53,3.23,0.30,0.18,-0.96,976.43
11.134,-0.06,0.06,0.12,8.39,-4.53,3.23,0.42,0.05,0.74,976.43
11.134,-0.06,0.06,0.12,8.08,-4.67,3.29,0.42,0.05,0.74,976.43
11.137,-0.03,0.04,0.15,8.08,-4.67,3.29,0.42,0.05,0.74,976.43
11.158,-0.11,0.01,0.10,8.08,-4.67,3.29,0.42,0.05,0.74,976.43
11.16,-0.11,0.01,0.10,8.08,-4.67,3.29,0.47,-0.26,2.11,976.43
11.16,-0.11,0.01,0.10,7.19,-5.92,2.84,0.47,-0.26,2.11,976.43
11.169,-0.11,0.01,0.10,7.19,-5.92,2.84,0.47,-0.26,2.11,976.43
11.175,-0.29,-0.07,0.02,7.19,-5.92,2.84,0.47,-0.26,2.11,976.43
11.195,-0.28,-0.03,0.06,7.19,-5.92,2.84,0.47,-0.26,2.11,976.43
11.198,-0.28,-0.03,0.06,7.19,-5.92,2.84,0.49,0.13,3.04,976.43
11.2,-0.28,-0.03,0.06,4.51,-7.46,2.34,0.49,0.13,3.04,976.43
11.242,-0.44,0.06,-0.11,4.51,-7.46,2.34,0.49,0.13,3.04,976.43
11.246,-0.44,0.06,-0.11,4.51,-7.46,2.34,0.49,0.13,3.04,976.42
11.247,-0.80,0.14,-0.26,4.51,-7.46,2.34,0.49,0.13,3.04,976.42
11.247,-0.80,0.14,-0.26,4.51,-7.46,2.34,0.57,0.20,3.54,976.42
11.248,-0.80,0.14,-0.26,3.37,-8.14,2.52,0.57,0.20,3.54,976.42
11.254,-0.93,0.31,-0.17,3.37,-8.14,2.52,0.57,0.20,3.54,976.42
11.273,-1.20,0.37,-0.24,3.37,-8.14,2.52,0.57,0.20,3.54,976.42
11.276,-1.20,0.37,-0.24,3.37,-8.14,2.52,0.51,0.19,3.44,976.42
11.277,-1.20,0.37,-0.24,-2.59,-6.72,0.35,0.51,0.19,3.44,976.42
11.289,-1.20,0.37,-0.24,-2.59,-6.72,0.35,0.51,0.19,3.44,976.41
11.293,-1.65,0.33,-0.34,-2.59,-6.72,0.35,0.51,0.19,3.44,976.41
11.314,-1.55,0.24,-0.26,-2.59,-6.72,0.35,0.51,0.19,3.44,976.41
11.315,-1.55,0.24,-0.26,-2.59,-6.72,0.35,0.39,0.15,2.31,976.41
11.316,-1.55,0.24,-0.26,-10.46,-5.57,-0.48,0.39,0.15,2.31,976.41
11.4,-1.05,0.09,0.00,-10.46,-5.57,-0.48,0.39,0.15,2.31,976.41
11.402,-1.05,0.09,0.00,-10.46,-5.57,-0.48,0.39,0.15,2.31,976.40
11.403,-0.93,2.55,-2.26,-10.46,-5.57,-0.48,0.39,0.15,2.31,976.40
11.404,-0.93,2.55,-2.26,-10.46,-5.57,-0.48,0.62,-0.80,0.97,976.40
11.404,-0.93,2.55,-2.26,-10.55,-5.56,-0.38,0.62,-0.80,0.97,976.40
11.405,-3.36,2.35,2.41,-10.55,-5.56,-0.38,0.62,-0.80,0.97,976.40
11.406,-0.12,0.02,-1.08,-10.55,-5.56,-0.38,0.62,-0.80,0.97,976.40
11.407,-0.12,0.02,-1.08,-10.55,-5.56,-0.38,-0.07,0.02,-2.17,976.40
11.407,-0.12,0.02,-1.08,-12.72,7.87,2.82,-0.07,0.02,-2.17,976.40
11.412,-0.12,0.02,-1.08,-12.72,7.87,2.82,-0.07,0.02,-2.17,976.41
11.413,1.21,-0.10,-1.39,-12.72,7.87,2.82,-0.07,0.02,-2.17,976.41
11.436,-0.45,0.83,0.73,-12.72,7.87,2.82,-0.07,0.02,-2.17,976.41
11.438,-0.45,0.83,0.73,-12.72,7.87,2.82,0.48,-0.29,0.67,976.41
11.439,-0.45,0.83,0.73,6.55,-5.95,-3.21,0.48,-0.29,0.67,976.41
11.46,-1.45,1.68,-0.50,6.55,-5.95,-3.21,0.48,-0.29,0.67,976.41
11.469,-1.45,1.68,-0.50,6.55,-5.95,-3.21,0.48,-0.29,0.67,976.41
11.47,-0.92,0.65,-0.52,6.55,-5.95,-3.21,0.48,-0.29,0.67,976.41
11.471,-0.92,0.65,-0.52,6.55,-5.95,-3.21,-0.19,1.44,-0.48,976.41
11.471,-0.92,0.65,-0.52,6.45,-5.78,-2.97,-0.19,1.44,-0.48,976.41
11.516,-0.30,0.63,0.03,6.45,-5.78,-2.97,-0.19,1.44,-0.48,976.41
11.52,-0.38,1.12,-0.17,6.45,-5.78,-2.97,-0.19,1.44,-0.48,976.41
11.524,-0.38,1.12,-0.17,6.45,-5.78,-2.97,0.05,-0.26,0.01,976.41
11.528,-0.38,1.12,-0.17,-4.26,1.42,-0.54,0.05,-0.26,0.01,976.41
11.53,-0.38,1.12,-0.17,-4.26,1.42,-0.54,0.05,-0.26,0.01,976.40
11.531,-0.75,0.83,-0.33,-4.26,1.42,-0.54,0.05,-0.26,0.01,976.40
11.551,-0.64,0.89,-0.23,-4.26,1.42,-0.54,0.05,-0.26,0.01,976.40
11.554,-0.64,0.89,-0.23,-4.26,1.42,-0.54,0.26,-0.17,0.37,976.40
11.555,-0.64,0.89,-0.23,-1.42,0.95,0.34,0.26,-0.17,0.37,976.40
11.57,-0.50,0.88,-0.36,-1.42,0.95,0.34,0.26,-0.17,0.37,976.40
11.59,-0.50,0.88,-0.36,-1.42,0.95,0.34,0.26,-0.17,0.37,976.38
11.592,-0.49,0.82,-0.38,-1.42,0.95,0.34,0.26,-0.17,0.37,976.38
11.592,-0.49,0.82,-0.38,-1.42,0.95,0.34,0.33,-0.36,0.63,976.38
11.593,-0.49,0.82,-0.38,-1.57,0.87,0.38,0.33,-0.36,0.63,976.38
11.611,-0.52,0.92,-0.42,-1.57,0.87,0.38,0.33,-0.36,0.63,976.38
11.651,-0.50,0.87,-0.47,-1.57,0.87,0.38,0.33,-0.36,0.63,976.38
11.655,-0.50,0.87,-0.47,-1.57,0.87,0.38,0.25,-0.44,0.87,976.38
11.657,-0.50,0.87,-0.47,-0.93,0.08,-0.99,0.25,-0.44,0.87,976.38
11.66,-0.50,0.87,-0.47,-0.93,0.08,-0.99,0.25,-0.44,0.87,976.38
11.663,-0.34,0.89,-0.32,-0.93,0.08,-0.99,0.25,-0.44,0.87,976.38
11.67,-0.26,0.94,-0.33,-0.93,0.08,-0.99,0.25,-0.44,0.87,976.38
11.673,-0.26,0.94,-0.33,-0.93,0.08,-0.99,0.09,-0.56,1.05,976.38
11.675,-0.26,0.94,-0.33,0.11,0.16,-0.91,0.09,-0.56,1.05,976.38
11.689,-0.32,0.85,-0.36,0.11,0.16,-0.91,0.09,-0.56,1.05,976.38
11.708,-0.28,0.89,-0.27,0.11,0.16,-0.91,0.09,-0.56,1.05,976.38
11.71,-0.28,0.89,-0.27,0.11,0.16,-0.91,0.02,-0.43,1.00,976.38
11.713,-0.28,0.89,-0.27,-0.19,0.02,-0.94,0.02,-0.43,1.00,976.38
11.714,-0.28,0.89,-0.27,-0.19,0.02,-0.94,0.02,-0.43,1.00,976.41
11.737,-0.19,0.95,-0.34,-0.19,0.02,-0.94,0.02,-0.43,1.00,976.41
11.748,-0.13,0.92,-0.37,-0.19,0.02,-0.94,0.02,-0.43,1.00,976.41
11.749,-0.13,0.92,-0.37,-0.19,0.02,-0.94,-0.03,-0.43,0.86,976.41
11.75,-0.13,0.92,-0.37,0.57,-0.13,-0.51,-0.03,-0.43,0.86,976.41
11.768,-0.08,0.94,-0.35,0.57,-0.13,-0.51,-0.03,-0.43,0.86,976.41
11.771,-0.08,0.94,-0.35,0.57,-0.13,-0.51,-0.03,-0.43,0.86,976.42
11.787,-0.19,0.91,-0.25,0.57,-0.13,-0.51,-0.03,-0.43,0.86,976.42
11.788,-0.19,0.91,-0.25,0.57,-0.13,-0.51,-0.08,-0.60,0.57,976.42
11.789,-0.19,0.91,-0.25,1.67,0.07,-0.59,-0.08,-0.60,0.57,976.42
11.81,-0.09,0.98,-0.23,1.67,0.07,-0.59,-0.08,-0.60,0.57,976.42
11.838,-0.09,0.98,-0.23,1.62,0.04,-0.67,-0.08,-0.60,0.57,976.42
11.839,-0.01,1.00,-0.26,1.62,0.04,-0.67,-0.08,-0.60,0.57,976.42
11.84,-0.01,1.00,-0.26,1.62,0.04,-0.67,-0.05,-0.64,0.25,976.42
11.841,-0.01,1.00,-0.26,1.62,0.04,-0.67,-0.05,-0.64,0.25,976.43
11.846,-0.04,0.97,-0.25,1.62,0.04,-0.67,-0.05,-0.64,0.25,976.43
11.866,-0.16,1.10,-0.35,1.62,0.04,-0.67,-0.05,-0.64,0.25,976.43
11.867,-0.16,1.10,-0.35,1.62,0.04,-0.67,-0.08,-0.27,-0.16,976.43
11.868,-0.16,1.10,-0.35,2.52,0.63,0.01,-0.08,-0.27,-0.16,976.43
11.887,-0.29,1.12,-0.36,2.52,0.63,0.01,-0.08,-0.27,-0.16,976.43
11.889,-0.29,1.12,-0.36,2.52,0.63,0.01,-0.08,-0.27,-0.16,976.43
11.913,-0.30,1.16,-0.28,2.52,0.63,0.01,-0.08,-0.27,-0.16,976.43
11.914,-0.30,1.16,-0.28,2.52,0.63,0.01,-0.14,-0.00,-0.50,976.43
11.915,-0.30,1.16,-0.28,0.66,2.02,-0.84,-0.14,-0.00,-0.50,976.43
11.925,-0.30,1.38,-0.13,0.66,2.02,-0.84,-0.14,-0.00,-0.50,976.43
11.962,-0.22,1.60,-0.12,0.66,2.02,-0.84,-0.14,-0.00,-0.50,976.43
11.964,-0.22,1.60,-0.12,0.66,2.02,-0.84,-0.20,-0.37,-0.54,976.43
11.966,-0.22,1.60,-0.12,0.87,2.04,-0.95,-0.20,-0.37,-0.54,976.43
11.968,-0.22,1.60,-0.12,0.87,2.04,-0.95,-0.20,-0.37,-0.54,976.44
11.97,-0.13,1.79,-0.27,0.87,2.04,-0.95,-0.20,-0.37,-0.54,976.44
11.986,-0.11,1.81,-0.35,0.87,2.04,-0.95,-0.20,-0.37,-0.54,976.44
11.989,-0.11,1.81,-0.35,0.87,2.04,-0.95,-0.37,-0.45,-0.57,976.44
11.99,-0.11,1.81,-0.35,1.44,6.53,0.42,-0.37,-0.45,-0.57,976.44
12.012,0.33,1.50,-0.47,1.44,6.53,0.42,-0.37,-0.45,-0.57,976.44
12.013,0.33,1.50,-0.47,1.44,6.53,0.42,-0.37,-0.45,-0.57,976.44
12.046,0.98,1.54,-0.75,1.44,6.53,0.42,-0.37,-0.45,-0.57,976.44
12.047,0.98,1.54,-0.75,1.44,6.53,0.42,-0.22,-1.34,-0.52,976.44
12.048,0.98,1.54,-0.75,7.60,6.71,-3.26,-0.22,-1.34,-0.52,976.44
12.05,0.09,2.25,-1.29,7.60,6.71,-3.26,-0.22,-1.34,-0.52,976.44
12.063,-1.82,2.47,-0.62,7.60,6.71,-3.26,-0.22,-1.34,-0.52,976.44
12.066,-1.82,2.47,-0.62,8.53,7.06,-3.40,-0.22,-1.34,-0.52,976.44
12.067,-1.82,2.47,-0.62,8.53,7.06,-3.40,-0.16,-0.89,-2.87,976.44
12.068,-1.82,2.47,-0.62,8.53,7.06,-3.40,-0.16,-0.89,-2.87,976.42
12.083,-2.64,1.92,-0.25,8.53,7.06,-3.40,-0.16,-0.89,-2.87,976.42
12.104,-1.22,1.62,-0.17,8.53,7.06,-3.40,-0.16,-0.89,-2.87,976.42
12.107,-1.22,1.62,-0.17,8.53,7.06,-3.40,-0.19,-1.04,-5.92,976.42
12.109,-1.22,1.62,-0.17,-7.54,14.00,-5.48,-0.19,-1.04,-5.92,976.42
12.133,0.22,1.43,-0.03,-7.54,14.00,-5.48,-0.19,-1.04,-5.92,976.42
12.134,0.22,1.43,-0.03,-7.54,14.00,-5.48,-0.19,-1.04,-5.92,976.42
12.142,0.08,0.93,0.13,-7.54,14.00,-5.48,-0.19,-1.04,-5.92,976.42
12.143,0.08,0.93,0.13,-7.54,14.00,-5.48,-0.25,-2.72,-4.17,976.42
12.144,0.08,0.93,0.13,4.90,6.39,0.45,-0.25,-2.72,-4.17,976.42
12.166,0.28,0.50,0.20,4.90,6.39,0.45,-0.25,-2.72,-4.17,976.42
12.182,0.18,0.25,0.18,4.90,6.39,0.45,-0.25,-2.72,-4.17,976.42
12.185,0.18,0.25,0.18,4.90,6.39,0.45,-0.52,0.08,-2.85,976.42
12.186,0.18,0.25,0.18,5.50,7.20,0.35,-0.52,0.08,-2.85,976.42
12.188,0.18,0.25,0.18,5.50,7.20,0.35,-0.52,0.08,-2.85,976.41
12.202,-0.03,0.18,0.10,5.50,7.20,0.35,-0.52,0.08,-2.85,976.41
12.233,-0.08,0.07,0.03,5.50,7.20,0.35,-0.52,0.08,-2.85,976.41
12.235,-0.08,0.07,0.03,5.50,7.20,0.35,-0.45,2.09,-1.50,976.41
12.235,-0.08,0.07,0.03,10.01,-2.25,2.66,-0.45,2.09,-1.50,976.41
12.241,-0.04,-0.05,-0.03,10.01,-2.25,2.66,-0.45,2.09,-1.50,976.41
12.262,-0.04,-0.05,-0.03,10.01,-2.25,2.66,-0.45,2.09,-1.50,976.40
12.263,0.05,-0.14,-0.09,10.01,-2.25,2.66,-0.45,2.09,-1.50,976.40
12.264,0.05,-0.14,-0.09,10.01,-2.25,2.66,-0.20,1.43,0.42,976.40
12.265,0.05,-0.14,-0.09,8.12,-5.69,1.26,-0.20,1.43,0.42,976.40
12.281,0.07,-0.06,-0.03,8.12,-5.69,1.26,-0.20,1.43,0.42,976.40
12.301,0.03,-0.04,0.03,8.12,-5.69,1.26,-0.20,1.43,0.42,976.40
12.304,0.03,-0.04,0.03,8.12,-5.69,1.26,-0.10,0.25,2.09,976.40
12.305,0.03,-0.04,0.03,7.51,-6.26,1.30,-0.10,0.25,2.09,976.40
12.307,0.03,-0.04,0.03,7.51,-6.26,1.30,-0.10,0.25,2.09,976.38
12.329,-0.08,-0.10,0.04,7.51,-6.26,1.30,-0.10,0.25,2.09,976.38
12.34,-0.07,-0.05,0.13,7.51,-6.26,1.30,-0.10,0.25,2.09,976.38
12.341,-0.07,-0.05,0.13,7.51,-6.26,1.30,-0.10,0.17,3.23,976.38
12.342,-0.07,-0.05,0.13,6.85,-7.33,1.69,-0.10,0.17,3.23,976.38
12.361,-0.22,0.11,0.09,6.85,-7.33,1.69,-0.10,0.17,3.23,976.38
12.367,-0.22,0.11,0.09,6.85,-7.33,1.69,-0.10,0.17,3.23,976.38
12.381,-0.73,0.30,-0.19,6.85,-7.33,1.69,-0.10,0.17,3.23,976.38
12.383,-0.73,0.30,-0.19,6.85,-7.33,1.69,-0.12,0.89,3.73,976.38
12.384,-0.73,0.30,-0.19,2.30,-6.35,1.79,-0.12,0.89,3.73,976.38
12.4,-1.07,0.58,-0.26,2.30,-6.35,1.79,-0.12,0.89,3.73,976.38
12.432,-1.41,0.59,-0.51,2.30,-6.35,1.79,-0.12,0.89,3.73,976.38
12.434,-1.41,0.59,-0.51,2.30,-6.35,1.79,-0.45,1.71,3.43,976.38
12.434,-1.41,0.59,-0.51,1.09,-6.95,1.96,-0.45,1.71,3.43,976.38
12.435,-1.41,0.59,-0.51,1.09,-6.95,1.96,-0.45,1.71,3.43,976.37
12.438,-1.75,0.33,-0.48,1.09,-6.95,1.96,-0.45,1.71,3.43,976.37
12.458,-1.29,0.17,-0.34,1.09,-6.95,1.96,-0.45,1.71,3.43,976.37
12.46,-1.29,0.17,-0.34,1.09,-6.95,1.96,-0.82,1.59,1.92,976.37
12.46,-1.29,0.17,-0.34,-9.98,-3.52,-2.14,-0.82,1.59,1.92,976.37
12.479,-1.07,-0.07,-0.34,-9.98,-3.52,-2.14,-0.82,1.59,1.92,976.37
12.486,-1.07,-0.07,-0.34,-9.98,-3.52,-2.14,-0.82,1.59,1.92,976.37
12.5,-1.59,1.59,-3.43,-9.98,-3.52,-2.14,-0.82,1.59,1.92,976.37
12.503,-1.59,1.59,-3.43,-9.98,-3.52,-2.14,-0.29,0.86,0.23,976.37
12.505,-1.59,1.59,-3.43,-9.09,-2.89,-11.28,-0.29,0.86,0.23,976.37
12.532,-3.48,1.79,2.93,-9.09,-2.89,-11.28,-0.29,0.86,0.23,976.37
12.538,0.23,0.82,-0.52,-9.09,-2.89,-11.28,-0.29,0.86,0.23,976.37
12.539,0.23,0.82,-0.52,-9.09,-2.89,-11.28,-0.35,0.76,-2.28,976.37
12.539,0.23,0.82,-0.52,-8.27,-2.50,-11.08,-0.35,0.76,-2.28,976.37
12.572,0.23,0.82,-0.52,-8.27,-2.50,-11.08,-0.35,0.76,-2.28,976.36
12.574,0.59,0.30,-1.08,-8.27,-2.50,-11.08,-0.35,0.76,-2.28,976.36
12.577,-0.80,0.19,0.30,-8.27,-2.50,-11.08,-0.35,0.76,-2.28,976.36
12.578,-0.80,0.19,0.30,-8.27,-2.50,-11.08,0.38,-1.06,0.27,976.36
12.58,-0.80,0.19,0.30,-3.94,1.44,6.50,0.38,-1.06,0.27,976.36
12.607,-1.29,1.30,-0.23,-3.94,1.44,6.50,0.38,-1.06,0.27,976.36
12.609,-1.29,1.30,-0.23,-3.94,1.44,6.50,0.38,-1.06,0.27,976.37
12.617,-0.72,1.09,-0.28,-3.94,1.44,6.50,0.38,-1.06,0.27,976.37
12.618,-0.72,1.09,-0.28,-3.94,1.44,6.50,0.05,1.22,-0.21,976.37
12.619,-0.72,1.09,-0.28,-4.41,0.38,1.68,0.05,1.22,-0.21,976.37
12.64,0.14,0.86,-0.38,-4.41,0.38,1.68,0.05,1.22,-0.21,976.37
12.656,-0.57,0.87,-0.33,-4.41,0.38,1.68,0.05,1.22,-0.21,976.37
12.658,-0.57,0.87,-0.33,-4.41,0.38,1.68,0.20,-0.00,0.03,976.37
12.658,-0.57,0.87,-0.33,-4.35,0.39,1.71,0.20,-0.00,0.03,976.37
12.666,-0.57,0.87,-0.33,-4.35,0.39,1.71,0.20,-0.00,0.03,976.39
12.676,-0.91,0.83,-0.27,-4.35,0.39,1.71,0.20,-0.00,0.03,976.39
12.724,-0.48,0.84,-0.29,-4.35,0.39,1.71,0.20,-0.00,0.03,976.39
12.728,-0.48,0.84,-0.29,-4.35,0.39,1.71,0.17,0.44,0.03,976.39
12.731,-0.48,0.84,-0.29,0.38,0.34,-0.65,0.17,0.44,0.03,976.39
12.732,-0.38,0.88,-0.26,0.38,0.34,-0.65,0.17,0.44,0.03,976.39
12.733,-0.38,0.88,-0.26,0.38,0.34,-0.65,0.17,0.44,0.03,976.40
12.761,-0.54,0.89,-0.26,0.38,0.34,-0.65,0.17,0.44,0.03,976.40
12.762,-0.54,0.89,-0.26,0.38,0.34,-0.65,0.05,0.38,0.27,976.40
12.762,-0.54,0.89,-0.26,0.06,0.45,-0.01,0.05,0.38,0.27,976.40
12.763,-0.63,0.86,-0.24,0.06,0.45,-0.01,0.05,0.38,0.27,976.40
12.775,-0.54,0.88,-0.25,0.06,0.45,-0.01,0.05,0.38,0.27,976.40
12.777,-0.54,0.88,-0.25,0.06,0.45,-0.01,0.03,0.36,0.31,976.40
12.779,-0.54,0.88,-0.25,-0.07,0.39,0.06,0.03,0.36,0.31,976.40
12.786,-0.54,0.88,-0.25,-0.07,0.39,0.06,0.03,0.36,0.31,976.41
12.795,-0.48,0.85,-0.31,-0.07,0.39,0.06,0.03,0.36,0.31,976.41
12.834,-0.46,0.89,-0.28,-0.07,0.39,0.06,0.03,0.36,0.31,976.41
12.835,-0.46,0.89,-0.28,-0.07,0.39,0.06,0.06,0.12,0.47,976.41
12.836,-0.46,0.89,-0.28,-1.03,0.23,0.13,0.06,0.12,0.47,976.41
12.838,-0.47,0.93,-0.30,-1.03,0.23,0.13,0.06,0.12,0.47,976.41
12.872,-0.47,0.93,-0.30,-1.03,0.23,0.13,0.06,0.12,0.47,976.40
12.874,-0.42,0.91,-0.34,-1.03,0.23,0.13,0.06,0.12,0.47,976.40
12.875,-0.42,0.91,-0.34,-1.03,0.23,0.13,0.01,0.13,0.51,976.40
12.876,-0.42,0.91,-0.34,-0.23,0.63,-0.23,0.01,0.13,0.51,976.40
12.877,-0.39,0.93,-0.34,-0.23,0.63,-0.23,0.01,0.13,0.51,976.40
12.893,-0.39,0.88,-0.30,-0.23,0.63,-0.23,0.01,0.13,0.51,976.40
12.894,-0.39,0.88,-0.30,-0.23,0.63,-0.23,-0.05,0.08,0.54,976.40
12.895,-0.39,0.88,-0.30,-0.41,0.53,-0.23,-0.05,0.08,0.54,976.40
12.907,-0.39,0.88,-0.30,-0.41,0.53,-0.23,-0.05,0.08,0.54,976.39
12.937,-0.42,0.87,-0.25,-0.41,0.53,-0.23,-0.05,0.08,0.54,976.39
12.938,-0.35,0.91,-0.24,-0.41,0.53,-0.23,-0.05,0.08,0.54,976.39
12.939,-0.35,0.91,-0.24,-0.41,0.53,-0.23,-0.04,-0.06,0.55,976.39
12.939,-0.35,0.91,-0.24,-0.09,0.27,-0.16,-0.04,-0.06,0.55,976.39
12.952,-0.24,0.96,-0.30,-0.09,0.27,-0.16,-0.04,-0.06,0.55,976.39
12.965,-0.24,0.96,-0.30,-0.09,0.27,-0.16,-0.04,-0.06,0.55,976.39
12.972,-0.20,0.96,-0.33,-0.09,0.27,-0.16,-0.04,-0.06,0.55,976.39
12.973,-0.20,0.96,-0.33,-0.09,0.27,-0.16,0.02,-0.27,0.43,976.39
12.973,-0.20,0.96,-0.33,1.12,0.65,-0.12,0.02,-0.27,0.43,976.39
12.992,-0.23,0.97,-0.30,1.12,0.65,-0.12,0.02,-0.27,0.43,976.39
13.012,-0.25,1.04,-0.29,1.12,0.65,-0.12,0.02,-0.27,0.43,976.39
13.013,-0.25,1.04,-0.29,1.12,0.65,-0.12,0.03,-0.35,0.19,976.39
13.015,-0.25,1.04,-0.29,1.08,0.62,-0.16,0.03,-0.35,0.19,976.39
13.025,-0.25,1.04,-0.29,1.08,0.62,-0.16,0.03,-0.35,0.19,976.39
13.053,-0.30,0.98,-0.25,1.08,0.62,-0.16,0.03,-0.35,0.19,976.39
13.055,-0.26,1.00,-0.36,1.08,0.62,-0.16,0.03,-0.35,0.19,976.39
13.056,-0.26,1.00,-0.36,1.08,0.62,-0.16,0.03,-0.45,-0.03,976.39
13.057,-0.26,1.00,-0.36,1.14,1.12,-0.10,0.03,-0.45,-0.03,976.39
13.072,-0.37,1.08,-0.31,1.14,1.12,-0.10,0.03,-0.45,-0.03,976.39
13.085,-0.37,1.08,-0.31,1.14,1.12,-0.10,0.03,-0.45,-0.03,976.38
13.092,-0.37,1.08,-0.31,0.69,1.54,-0.70,0.03,-0.45,-0.03,976.38
13.093,-0.33,1.04,-0.32,0.69,1.54,-0.70,0.03,-0.45,-0.03,976.38
13.095,-0.33,1.04,-0.32,0.69,1.54,-0.70,-0.03,-0.53,-0.20,976.38
13.111,-0.19,1.09,-0.42,0.69,1.54,-0.70,-0.03,-0.53,-0.20,976.38
13.134,-0.22,1.16,-0.32,0.69,1.54,-0.70,-0.03,-0.53,-0.20,976.38
13.136,-0.22,1.16,-0.32,0.69,1.54,-0.70,-0.11,-0.75,-0.46,976.38
13.136,-0.22,1.16,-0.32,0.91,1.58,-0.84,-0.11,-0.75,-0.46,976.38
13.145,-0.22,1.16,-0.32,0.91,1.58,-0.84,-0.11,-0.75,-0.46,976.36
13.163,-0.25,1.36,-0.12,0.91,1.58,-0.84,-0.11,-0.75,-0.46,976.36
13.17,-0.16,1.74,-0.10,0.91,1.58,-0.84,-0.11,-0.75,-0.46,976.36
13.171,-0.16,1.74,-0.10,0.91,1.58,-0.84,-0.16,-0.71,-0.95,976.36
13.172,-0.16,1.74,-0.10,2.23,3.30,-0.55,-0.16,-0.71,-0.95,976.36
13.189,-0.09,2.07,-0.18,2.23,3.30,-0.55,-0.16,-0.71,-0.95,976.36
13.205,-0.09,2.07,-0.18,2.23,3.30,-0.55,-0.16,-0.71,-0.95,976.36
13.209,0.19,2.20,-0.33,2.23,3.30,-0.55,-0.16,-0.71,-0.95,976.36
13.21,0.19,2.20,-0.33,2.23,3.30,-0.55,-0.23,-0.95,-1.59,976.36
13.211,0.19,2.20,-0.33,4.72,11.24,0.02,-0.23,-0.95,-1.59,976.36
13.232,0.31,2.07,-0.70,4.72,11.24,0.02,-0.23,-0.95,-1.59,976.36
13.261,0.59,1.93,-1.10,4.72,11.24,0.02,-0.23,-0.95,-1.59,976.36
13.262,0.59,1.93,-1.10,4.72,11.24,0.02,-0.55,-0.74,-1.92,976.36
13.263,0.59,1.93,-1.10,5.32,11.40,-0.30,-0.55,-0.74,-1.92,976.36
13.268,0.59,1.93,-1.10,5.32,11.40,-0.30,-0.55,-0.74,-1.92,976.35
13.27,-1.54,2.19,-0.70,5.32,11.40,-0.30,-0.55,-0.74,-1.92,976.35
13.288,-3.26,2.00,-0.26,5.32,11.40,-0.30,-0.55,-0.74,-1.92,976.35
13.289,-3.26,2.00,-0.26,5.32,11.40,-0.30,-0.61,0.42,-4.36,976.35
13.29,-3.26,2.00,-0.26,4.65,12.76,-6.45,-0.61,0.42,-4.36,976.35
13.308,-2.23,1.80,-0.16,4.65,12.76,-6.45,-0.61,0.42,-4.36,976.35
13.334,-2.23,1.80,-0.16,4.65,12.76,-6.45,-0.61,0.42,-4.36,976.34
13.337,-0.02,1.58,-0.12,4.65,12.76,-6.45,-0.61,0.42,-4.36,976.34
13.339,-0.02,1.58,-0.12,4.65,12.76,-6.45,-0.27,-1.76,-5.40,976.34
13.342,-0.02,1.58,-0.12,-9.61,11.51,-0.68,-0.27,-1.76,-5.40,976.34
13.352,0.14,0.76,0.07,-9.61,11.51,-0.68,-0.27,-1.76,-5.40,976.34
13.367,0.28,0.19,0.13,-9.61,11.51,-0.68,-0.27,-1.76,-5.40,976.34
13.368,0.28,0.19,0.13,-9.61,11.51,-0.68,-0.32,-1.96,-3.25,976.34
13.369,0.28,0.19,0.13,-8.69,12.42,-1.41,-0.32,-1.96,-3.25,976.34
13.384,0.28,0.19,0.13,-8.69,12.42,-1.41,-0.32,-1.96,-3.25,976.33
13.387,0.05,0.06,0.06,-8.69,12.42,-1.41,-0.32,-1.96,-3.25,976.33
13.407,-0.13,0.03,-0.04,-8.69,12.42,-1.41,-0.32,-1.96,-3.25,976.33
13.41,-0.13,0.03,-0.04,-8.69,12.42,-1.41,-0.49,1.18,-1.48,976.33
13.412,-0.13,0.03,-0.04,10.90,-1.29,1.58,-0.49,1.18,-1.48,976.33
13.435,0.05,-0.22,-0.08,10.90,-1.29,1.58,-0.49,1.18,-1.48,976.33
13.444,0.05,-0.22,-0.08,10.90,-1.29,1.58,-0.49,1.18,-1.48,976.33
13.466,0.17,-0.29,0.01,10.90,-1.29,1.58,-0.49,1.18,-1.48,976.33
13.468,0.17,-0.29,0.01,10.90,-1.29,1.58,-0.14,1.12,1.02,976.33
13.468,0.17,-0.29,0.01,9.31,-6.43,0.72,-0.14,1.12,1.02,976.33
13.469,0.42,-0.26,0.06,9.31,-6.43,0.72,-0.14,1.12,1.02,976.33
13.486,-0.14,-0.25,0.02,9.31,-6.43,0.72,-0.14,1.12,1.02,976.33
13.487,-0.14,-0.25,0.02,9.31,-6.43,0.72,0.15,0.91,3.57,976.33
13.487,-0.14,-0.25,0.02,8.35,-7.51,1.05,0.15,0.91,3.57,976.33
13.504,-0.14,-0.25,0.02,8.35,-7.51,1.05,0.15,0.91,3.57,976.33
13.507,-0.34,-0.25,0.04,8.35,-7.51,1.05,0.15,0.91,3.57,976.33
13.533,-0.39,-0.18,-0.10,8.35,-7.51,1.05,0.15,0.91,3.57,976.33
13.534,-0.39,-0.18,-0.10,8.35,-7.51,1.05,0.11,1.38,4.68,976.33
13.535,-0.39,-0.18,-0.10,6.40,-9.63,2.21,0.11,1.38,4.68,976.33
13.545,-0.78,-0.04,-0.34,6.40,-9.63,2.21,0.11,1.38,4.68,976.33
13.573,-0.78,-0.04,-0.34,6.40,-9.63,2.21,0.11,1.38,4.68,976.34
13.576,-1.16,0.00,-0.17,6.40,-9.63,2.21,0.11,1.38,4.68,976.34
13.577,-1.16,0.00,-0.17,6.40,-9.63,2.21,-0.10,1.37,4.59,976.34
13.578,-1.16,0.00,-0.17,-2.46,-8.77,0.08,-0.10,1.37,4.59,976.34
13.584,-1.24,-0.11,-0.07,-2.46,-8.77,0.08,-0.10,1.37,4.59,976.34
13.604,-1.21,-0.22,-0.16,-2.46,-8.77,0.08,-0.10,1.37,4.59,976.34
13.605,-1.21,-0.22,-0.16,-2.46,-8.77,0.08,-0.48,1.66,3.35,976.34
13.606,-1.21,-0.22,-0.16,-3.66,-9.26,0.21,-0.48,1.66,3.35,976.34
13.624,-1.21,-0.22,-0.16,-3.66,-9.26,0.21,-0.48,1.66,3.35,976.33
13.625,-0.89,-0.25,0.01,-3.66,-9.26,0.21,-0.48,1.66,3.35,976.33
13.659,-0.53,-0.46,0.40,-3.66,-9.26,0.21,-0.48,1.66,3.35,976.33
13.661,-0.53,-0.46,0.40,-3.66,-9.26,0.21,-0.51,1.50,1.98,976.33
13.662,-0.53,-0.46,0.40,-7.65,-10.59,1.50,-0.51,1.50,1.98,976.33
13.671,-0.53,2.31,-3.05,-7.65,-10.59,1.50,-0.51,1.50,1.98,976.33
13.683,-0.53,2.31,-3.05,-7.65,-10.59,1.50,-0.51,1.50,1.98,976.32
13.685,-3.55,3.88,-0.20,-7.65,-10.59,1.50,-0.51,1.50,1.98,976.32
13.685,-3.55,3.88,-0.20,-7.65,-10.59,1.50,0.16,2.03,-0.22,976.32
13.686,-3.55,3.88,-0.20,-11.68,9.91,-6.65,0.16,2.03,-0.22,976.32
13.702,-1.44,-0.49,2.18,-11.68,9.91,-6.65,0.16,2.03,-0.22,976.32
13.728,-0.46,-0.79,-2.62,-11.68,9.91,-6.65,0.16,2.03,-0.22,976.32
13.73,-0.46,-0.79,-2.62,-11.68,9.91,-6.65,0.15,2.25,-2.83,976.32
13.733,-0.46,-0.79,-2.62,-10.78,10.17,-6.17,0.15,2.25,-2.83,976.32
13.771,0.22,1.21,0.20,-10.78,10.17,-6.17,0.15,2.25,-2.83,976.32
13.775,0.22,1.21,0.20,-10.78,10.17,-6.17,0.15,2.25,-2.83,976.32
13.779,-0.68,1.85,-0.22,-10.78,10.17,-6.17,0.15,2.25,-2.83,976.32
13.782,-0.68,1.85,-0.22,-10.78,10.17,-6.17,1.04,-1.19,-0.36,976.32
13.784,-0.68,1.85,-0.22,-0.92,-8.46,2.43,1.04,-1.19,-0.36,976.32
13.786,-0.86,0.26,-0.54,-0.92,-8.46,2.43,1.04,-1.19,-0.36,976.32
13.807,-0.58,0.83,-0.47,-0.92,-8.46,2.43,1.04,-1.19,-0.36,976.32
13.809,-0.58,0.83,-0.47,-0.92,-8.46,2.43,0.49,0.16,-0.87,976.32
13.81,-0.58,0.83,-0.47,-2.10,1.57,-0.61,0.49,0.16,-0.87,976.32
13.811,-0.58,0.83,-0.47,-2.10,1.57,-0.61,0.49,0.16,-0.87,976.33
13.831,-0.76,0.83,-0.42,-2.10,1.57,-0.61,0.49,0.16,-0.87,976.33
13.841,-0.74,0.83,-0.64,-2.10,1.57,-0.61,0.49,0.16,-0.87,976.33
13.842,-0.74,0.83,-0.64,-2.10,1.57,-0.61,0.40,-0.11,-0.35,976.33
13.842,-0.74,0.83,-0.64,-1.94,1.67,-0.50,0.40,-0.11,-0.35,976.33
13.86,-0.65,0.87,-0.68,-1.94,1.67,-0.50,0.40,-0.11,-0.35,976.33
13.862,-0.65,0.87,-0.68,-1.94,1.67,-0.50,0.40,-0.11,-0.35,976.35
13.883,-0.65,0.87,-0.68,-2.02,0.25,-2.28,0.40,-0.11,-0.35,976.35
13.886,-0.77,0.91,-0.65,-2.02,0.25,-2.28,0.40,-0.11,-0.35,976.35
13.888,-0.77,0.91,-0.65,-2.02,0.25,-2.28,-0.06,-0.58,0.24,976.35
13.902,-0.89,1.31,-0.52,-2.02,0.25,-2.28,-0.06,-0.58,0.24,976.35
13.941,-0.94,1.73,-0.23,-2.02,0.25,-2.28,-0.06,-0.58,0.24,976.35
13.945,-0.94,1.73,-0.23,-2.02,0.25,-2.28,-0.84,-0.22,0.80,976.35
13.948,-0.94,1.73,-0.23,-3.63,4.57,-1.41,-0.84,-0.22,0.80,976.35
13.95,-0.94,1.73,-0.23,-3.63,4.57,-1.41,-0.84,-0.22,0.80,976.34
13.951,-0.63,2.03,0.03,-3.63,4.57,-1.41,-0.84,-0.22,0.80,976.34
13.992,-0.05,1.86,0.01,-3.63,4.57,-1.41,-0.84,-0.22,0.80,976.34
13.994,-0.05,1.86,0.01,-3.63,4.57,-1.41,-0.97,-0.27,1.22,976.34
13.995,-0.05,1.86,0.01,-3.94,4.16,-1.76,-0.97,-0.27,1.22,976.34
13.996,0.15,1.29,-0.18,-3.94,4.16,-1.76,-0.97,-0.27,1.22,976.34
13.997,0.15,1.29,-0.18,-3.94,4.16,-1.76,-0.97,-0.27,1.22,976.33
14.0,0.31,0.89,-0.45,-3.94,4.16,-1.76,-0.97,-0.27,1.22,976.33
14.003,0.31,0.89,-0.45,-3.94,4.16,-1.76,-0.28,-1.16,1.25,976.33
14.004,0.31,0.89,-0.45,2.45,7.81,2.03,-0.28,-1.16,1.25,976.33
14.019,0.59,0.70,-0.38,2.45,7.81,2.03,-0.28,-1.16,1.25,976.33
14.043,-0.24,0.75,-0.23,2.45,7.81,2.03,-0.28,-1.16,1.25,976.33
14.045,-0.24,0.75,-0.23,2.45,7.81,2.03,-0.01,0.02,0.22,976.33
14.046,-0.24,0.75,-0.23,6.16,-1.49,-0.96,-0.01,0.02,0.22,976.33
14.047,-0.24,0.75,-0.23,6.16,-1.49,-0.96,-0.01,0.02,0.22,976.34
14.058,-1.27,1.27,-0.13,6.16,-1.49,-0.96,-0.01,0.02,0.22,976.34
14.081,-0.98,2.02,-0.34,6.16,-1.49,-0.96,-0.01,0.02,0.22,976.34
14.082,-0.98,2.02,-0.34,6.16,-1.49,-0.96,0.09,0.33,-2.91,976.34
14.083,-0.98,2.02,-0.34,7.03,-0.94,-0.86,0.09,0.33,-2.91,976.34
14.1,-0.36,2.50,-0.76,7.03,-0.94,-0.86,0.09,0.33,-2.91,976.34
14.102,-0.36,2.50,-0.76,7.03,-0.94,-0.86,0.09,0.33,-2.91,976.33
14.12,-0.62,1.98,-0.50,7.03,-0.94,-0.86,0.09,0.33,-2.91,976.33
14.123,-0.62,1.98,-0.50,7.03,-0.94,-0.86,0.12,-1.45,-4.48,976.33
14.125,-0.62,1.98,-0.50,-2.01,11.13,-1.68,0.12,-1.45,-4.48,976.33
14.152,-0.97,1.39,-0.26,-2.01,11.13,-1.68,0.12,-1.45,-4.48,976.33
14.157,-0.92,1.49,-0.21,-2.01,11.13,-1.68,0.12,-1.45,-4.48,976.33
14.158,-0.92,1.49,-0.21,-2.01,11.13,-1.68,0.20,-1.01,-4.73,976.33
14.159,-0.92,1.49,-0.21,-0.32,9.32,-1.02,0.20,-1.01,-4.73,976.33
14.163,-0.92,1.49,-0.21,-0.32,9.32,-1.02,0.20,-1.01,-4.73,976.32
14.184,-0.43,1.27,-0.11,-0.32,9.32,-1.02,0.20,-1.01,-4.73,976.32
14.196,-0.06,0.84,-0.01,-0.32,9.32,-1.02,0.20,-1.01,-4.73,976.32
14.197,-0.06,0.84,-0.01,-0.32,9.32,-1.02,0.46,-1.83,-3.57,976.32
14.198,-0.06,0.84,-0.01,0.64,10.37,-1.50,0.46,-1.83,-3.57,976.32
14.24,0.06,0.37,-0.04,0.64,10.37,-1.50,0.46,-1.83,-3.57,976.32
14.244,0.06,0.37,-0.04,0.64,10.37,-1.50,0.46,-1.83,-3.57,976.31
14.246,-0.05,0.06,-0.13,0.64,10.37,-1.50,0.46,-1.83,-3.57,976.31
14.248,-0.05,0.06,-0.13,0.64,10.37,-1.50,0.26,0.05,-1.85,976.31
14.249,-0.05,0.06,-0.13,7.69,3.19,1.15,0.26,0.05,-1.85,976.31
14.256,0.09,-0.08,-0.13,7.69,3.19,1.15,0.26,0.05,-1.85,976.31
14.286,0.12,-0.07,-0.05,7.69,3.19,1.15,0.26,0.05,-1.85,976.31
14.29,0.12,-0.07,-0.05,7.69,3.19,1.15,0.15,1.54,0.22,976.31
14.292,0.12,-0.07,-0.05,9.34,-5.18,1.26,0.15,1.54,0.22,976.31
14.295,0.12,-0.07,-0.05,9.34,-5.18,1.26,0.15,1.54,0.22,976.32
14.296,-0.05,0.02,0.04,9.34,-5.18,1.26,0.15,1.54,0.22,976.32
14.327,-0.05,0.02,0.04,8.67,-5.80,1.52,0.15,1.54,0.22,976.32
14.33,-0.02,-0.00,0.08,8.67,-5.80,1.52,0.15,1.54,0.22,976.32
14.332,-0.02,-0.00,0.08,8.67,-5.80,1.52,0.01,0.85,2.13,976.32
14.336,-0.08,-0.10,-0.01,8.67,-5.80,1.52,0.01,0.85,2.13,976.32
14.343,-0.08,-0.10,-0.01,8.67,-5.80,1.52,0.01,0.85,2.13,976.31
14.366,-0.18,-0.07,-0.03,8.67,-5.80,1.52,0.01,0.85,2.13,976.31
14.367,-0.18,-0.07,-0.03,8.67,-5.80,1.52,-0.16,0.68,3.48,976.31
14.368,-0.18,-0.07,-0.03,6.63,-6.71,3.02,-0.16,0.68,3.48,976.31
14.375,-0.37,-0.06,-0.08,6.63,-6.71,3.02,-0.16,0.68,3.48,976.31
14.395,-0.72,0.08,-0.28,6.63,-6.71,3.02,-0.16,0.68,3.48,976.31
14.397,-0.72,0.08,-0.28,6.63,-6.71,3.02,-0.31,0.88,4.14,976.31
14.398,-0.72,0.08,-0.28,1.72,-7.56,1.47,-0.31,0.88,4.14,976.31
14.403,-0.72,0.08,-0.28,1.72,-7.56,1.47,-0.31,0.88,4.14,976.30
14.415,-0.89,0.30,-0.22,1.72,-7.56,1.47,-0.31,0.88,4.14,976.30
14.44,-1.40,0.17,-0.51,1.72,-7.56,1.47,-0.31,0.88,4.14,976.30
14.443,-1.40,0.17,-0.51,1.72,-7.56,1.47,-0.54,1.07,3.77,976.30
14.444,-1.40,0.17,-0.51,0.42,-8.26,1.50,-0.54,1.07,3.77,976.30
14.467,-1.85,0.12,-0.57,0.42,-8.26,1.50,-0.54,1.07,3.77,976.30
14.468,-1.85,0.12,-0.57,0.42,-8.26,1.50,-0.54,1.07,3.77,976.30
14.473,-1.45,0.04,-0.45,0.42,-8.26,1.50,-0.54,1.07,3.77,976.30
14.474,-1.45,0.04,-0.45,0.42,-8.26,1.50,-0.79,1.49,2.16,976.30
14.474,-1.45,0.04,-0.45,-9.66,-6.49,-1.46,-0.79,1.49,2.16,976.30
14.495,-0.82,-0.24,-0.16,-9.66,-6.49,-1.46,-0.79,1.49,2.16,976.30
14.514,-0.47,0.80,-1.88,-9.66,-6.49,-1.46,-0.79,1.49,2.16,976.30
14.519,-0.47,0.80,-1.88,-9.66,-6.49,-1.46,-0.27,0.73,0.87,976.30
14.521,-0.47,0.80,-1.88,-5.40,-6.52,-5.27,-0.27,0.73,0.87,976.30
14.524,-0.47,0.80,-1.88,-5.40,-6.52,-5.27,-0.27,0.73,0.87,976.29
14.55,-3.13,4.25,-0.59,-5.40,-6.52,-5.27,-0.27,0.73,0.87,976.29
14.555,-0.80,0.18,2.09,-5.40,-6.52,-5.27,-0.27,0.73,0.87,976.29
14.556,-0.80,0.18,2.09,-5.40,-6.52,-5.27,-0.36,1.56,-1.05,976.29
14.557,-0.80,0.18,2.09,-5.15,-6.31,-5.08,-0.36,1.56,-1.05,976.29
14.597,-0.48,-0.90,-2.52,-5.15,-6.31,-5.08,-0.36,1.56,-1.05,976.29
14.598,-0.48,-0.90,-2.52,-5.15,-6.31,-5.08,-0.36,1.56,-1.05,976.28
14.599,-0.08,1.09,0.77,-5.15,-6.31,-5.08,-0.36,1.56,-1.05,976.28
14.6,-0.08,1.09,0.77,-5.15,-6.31,-5.08,0.43,-0.57,-0.29,976.28
14.6,-0.08,1.09,0.77,-10.25,3.29,-0.20,0.43,-0.57,-0.29,976.28
14.611,-0.63,1.82,-0.41,-10.25,3.29,-0.20,0.43,-0.57,-0.29,976.28
14.631,-1.00,0.39,-0.49,-10.25,3.29,-0.20,0.43,-0.57,-0.29,976.28
14.633,-1.00,0.39,-0.49,-10.25,3.29,-0.20,0.11,0.39,-0.01,976.28
14.634,-1.00,0.39,-0.49,-1.45,2.50,2.75,0.11,0.39,-0.01,976.28
14.641,-1.00,0.39,-0.49,-1.45,2.50,2.75,0.11,0.39,-0.01,976.27
14.652,-0.55,0.91,-0.29,-1.45,2.50,2.75,0.11,0.39,-0.01,976.27
14.671,-0.54,0.92,-0.31,-1.45,2.50,2.75,0.11,0.39,-0.01,976.27
14.672,-0.54,0.92,-0.31,-1.45,2.50,2.75,0.18,0.20,0.44,976.27
14.673,-0.54,0.92,-0.31,-1.59,2.41,2.79,0.18,0.20,0.44,976.27
14.691,-0.49,0.92,-0.34,-1.59,2.41,2.79,0.18,0.20,0.44,976.27
14.701,-0.49,0.92,-0.34,-1.59,2.41,2.79,0.18,0.20,0.44,976.29
14.71,-0.52,0.86,-0.38,-1.59,2.41,2.79,0.18,0.20,0.44,976.29
14.712,-0.52,0.86,-0.38,-1.59,2.41,2.79,0.22,-0.37,0.76,976.29
14.714,-0.52,0.86,-0.38,-1.38,0.56,0.15,0.22,-0.37,0.76,976.29
14.732,-0.42,0.93,-0.35,-1.38,0.56,0.15,0.22,-0.37,0.76,976.29
14.767,-0.33,0.91,-0.47,-1.38,0.56,0.15,0.22,-0.37,0.76,976.29
14.772,-0.33,0.91,-0.47,-1.38,0.56,0.15,0.19,-0.39,0.94,976.29
14.773,-0.33,0.91,-0.47,-0.58,0.24,-0.64,0.19,-0.39,0.94,976.29
14.774,-0.33,0.91,-0.47,-0.58,0.24,-0.64,0.19,-0.39,0.94,976.31
14.774,-0.37,0.86,-0.39,-0.58,0.24,-0.64,0.19,-0.39,0.94,976.31
14.789,-0.35,0.86,-0.31,-0.58,0.24,-0.64,0.19,-0.39,0.94,976.31
14.79,-0.35,0.86,-0.31,-0.58,0.24,-0.64,0.06,-0.35,1.01,976.31
14.791,-0.35,0.86,-0.31,-0.86,0.11,-0.66,0.06,-0.35,1.01,976.31
14.809,-0.20,0.87,-0.32,-0.86,0.11,-0.66,0.06,-0.35,1.01,976.31
14.83,-0.20,0.87,-0.32,-0.86,0.11,-0.66,0.06,-0.35,1.01,976.31
14.833,-0.13,0.93,-0.27,-0.86,0.11,-0.66,0.06,-0.35,1.01,976.31
14.835,-0.13,0.93,-0.27,-0.86,0.11,-0.66,0.02,-0.48,0.96,976.31
14.836,-0.13,0.93,-0.27,0.01,-0.33,-0.16,0.02,-0.48,0.96,976.31
14.865,-0.11,0.92,-0.31,0.01,-0.33,-0.16,0.02,-0.48,0.96,976.31
14.868,-0.12,0.94,-0.31,0.01,-0.33,-0.16,0.02,-0.48,0.96,976.31
14.869,-0.12,0.94,-0.31,0.01,-0.33,-0.16,0.05,-0.53,0.69,976.31
14.869,-0.12,0.94,-0.31,1.61,0.25,0.22,0.05,-0.53,0.69,976.31
14.88,-0.12,0.94,-0.31,1.61,0.25,0.22,0.05,-0.53,0.69,976.31
14.888,-0.04,0.94,-0.32,1.61,0.25,0.22,0.05,-0.53,0.69,976.31
14.909,-0.06,0.93,-0.40,1.61,0.25,0.22,0.05,-0.53,0.69,976.31
14.912,-0.06,0.93,-0.40,1.61,0.25,0.22,0.09,-0.58,0.27,976.31
14.914,-0.06,0.93,-0.40,1.56,0.22,0.19,0.09,-0.58,0.27,976.31
14.933,-0.17,0.98,-0.36,1.56,0.22,0.19,0.09,-0.58,0.27,976.31
14.941,-0.17,0.98,-0.36,1.56,0.22,0.19,0.09,-0.58,0.27,976.30
14.947,-0.12,1.01,-0.48,1.56,0.22,0.19,0.09,-0.58,0.27,976.30
14.948,-0.12,1.01,-0.48,1.56,0.22,0.19,0.05,-0.42,-0.14,976.30
14.949,-0.12,1.01,-0.48,1.95,0.43,-0.41,0.05,-0.42,-0.14,976.30
14.972,-0.24,1.03,-0.37,1.95,0.43,-0.41,0.05,-0.42,-0.14,976.30
14.986,-0.34,1.08,-0.24,1.95,0.43,-0.41,0.05,-0.42,-0.14,976.30
14.99,-0.34,1.08,-0.24,1.95,0.43,-0.41,-0.11,-0.27,-0.41,976.30
14.991,-0.34,1.08,-0.24,0.69,1.31,-0.54,-0.11,-0.27,-0.41,976.30
15.003,-0.34,1.08,-0.24,0.69,1.31,-0.54,-0.11,-0.27,-0.41,976.31
15.007,-0.45,1.18,-0.23,0.69,1.31,-0.54,-0.11,-0.27,-0.41,976.31
15.033,-0.58,1.23,-0.26,0.69,1.31,-0.54,-0.11,-0.27,-0.41,976.31
15.036,-0.58,1.23,-0.26,0.69,1.31,-0.54,-0.23,-0.18,-0.45,976.31
15.037,-0.58,1.23,-0.26,0.85,1.32,-0.63,-0.23,-0.18,-0.45,976.31
15.047,-0.62,1.39,-0.27,0.85,1.32,-0.63,-0.23,-0.18,-0.45,976.31
15.064,-0.62,1.39,-0.27,0.85,1.32,-0.63,-0.23,-0.18,-0.45,976.30
15.066,-0.46,1.72,-0.26,0.85,1.32,-0.63,-0.23,-0.18,-0.45,976.30
15.067,-0.46,1.72,-0.26,0.85,1.32,-0.63,-0.21,-0.69,-0.13,976.30
15.068,-0.46,1.72,-0.26,-2.04,3.50,0.28,-0.21,-0.69,-0.13,976.30
15.086,0.10,1.65,-0.30,-2.04,3.50,0.28,-0.21,-0.69,-0.13,976.30
15.105,0.70,1.27,-0.41,-2.04,3.50,0.28,-0.21,-0.69,-0.13,976.30
15.106,0.70,1.27,-0.41,-2.04,3.50,0.28,-0.31,-1.10,0.38,976.30
15.107,0.70,1.27,-0.41,4.31,6.03,-0.65,-0.31,-1.10,0.38,976.30
15.139,0.70,1.27,-0.41,4.31,6.03,-0.65,-0.31,-1.10,0.38,976.30
15.143,1.06,1.69,-0.63,4.31,6.03,-0.65,-0.31,-1.10,0.38,976.30
15.147,-1.02,2.26,-0.76,4.31,6.03,-0.65,-0.31,-1.10,0.38,976.30
15.149,-1.02,2.26,-0.76,4.31,6.03,-0.65,-0.23,0.30,-1.09,976.30
15.15,-1.02,2.26,-0.76,4.60,6.05,-0.68,-0.23,0.30,-1.09,976.30
15.189,-1.66,2.25,-0.48,4.60,6.05,-0.68,-0.23,0.30,-1.09,976.30
15.191,-1.66,2.25,-0.48,4.60,6.05,-0.68,-0.23,0.30,-1.09,976.30
15.192,-0.27,2.14,-0.38,4.60,6.05,-0.68,-0.23,0.30,-1.09,976.30
15.193,-0.27,2.14,-0.38,4.60,6.05,-0.68,0.15,0.93,-4.51,976.30
15.193,-0.27,2.14,-0.38,-0.36,11.73,-3.35,0.15,0.93,-4.51,976.30
15.204,-0.30,1.91,-0.57,-0.36,11.73,-3.35,0.15,0.93,-4.51,976.30
15.234,-0.58,1.41,-0.35,-0.36,11.73,-3.35,0.15,0.93,-4.51,976.30
15.239,-0.58,1.41,-0.35,-0.36,11.73,-3.35,0.35,-0.39,-4.88,976.30
15.241,-0.58,1.41,-0.35,2.75,10.30,-1.46,0.35,-0.39,-4.88,976.30
15.243,-0.58,1.41,-0.35,2.75,10.30,-1.46,0.35,-0.39,-4.88,976.31
15.245,-0.37,1.14,-0.14,2.75,10.30,-1.46,0.35,-0.39,-4.88,976.31
15.278,-0.20,0.93,-0.01,2.75,10.30,-1.46,0.35,-0.39,-4.88,976.31
15.28,-0.20,0.93,-0.01,2.75,10.30,-1.46,0.34,-0.17,-4.10,976.31
15.281,-0.20,0.93,-0.01,3.83,11.29,-1.39,0.34,-0.17,-4.10,976.31
15.283,-0.02,0.62,-0.02,3.83,11.29,-1.39,0.34,-0.17,-4.10,976.31
15.299,-0.02,0.62,-0.02,3.83,11.29,-1.39,0.34,-0.17,-4.10,976.31
15.311,0.03,0.26,0.01,3.83,11.29,-1.39,0.34,-0.17,-4.10,976.31
15.313,0.03,0.26,0.01,3.83,11.29,-1.39,0.16,-0.30,-2.49,976.31
15.314,0.03,0.26,0.01,6.16,3.01,2.23,0.16,-0.30,-2.49,976.31
15.338,0.11,0.07,-0.00,6.16,3.01,2.23,0.16,-0.30,-2.49,976.31
15.342,0.21,0.04,0.01,6.16,3.01,2.23,0.16,-0.30,-2.49,976.31
15.343,0.21,0.04,0.01,6.16,3.01,2.23,0.12,-0.07,-0.65,976.31
15.343,0.21,0.04,0.01,9.24,-4.30,2.79,0.12,-0.07,-0.65,976.31
15.359,0.21,0.04,0.01,9.24,-4.30,2.79,0.12,-0.07,-0.65,976.30
15.362,0.13,0.08,0.06,9.24,-4.30,2.79,0.12,-0.07,-0.65,976.30
15.383,-0.01,0.09,0.06,9.24,-4.30,2.79,0.12,-0.07,-0.65,976.30
15.385,-0.01,0.09,0.06,9.24,-4.30,2.79,0.04,0.18,1.06,976.30
15.386,-0.01,0.09,0.06,8.83,-4.55,2.81,0.04,0.18,1.06,976.30
15.405,-0.05,0.09,0.01,8.83,-4.55,2.81,0.04,0.18,1.06,976.30
15.424,-0.05,0.09,0.01,8.83,-4.55,2.81,0.04,0.18,1.06,976.29
15.428,-0.17,0.12,-0.08,8.83,-4.55,2.81,0.04,0.18,1.06,976.29
15.43,-0.17,0.12,-0.08,8.83,-4.55,2.81,-0.21,0.64,2.49,976.29
15.432,-0.17,0.12,-0.08,7.14,-5.57,3.25,-0.21,0.64,2.49,976.29
15.454,-0.39,0.13,-0.12,7.14,-5.57,3.25,-0.21,0.64,2.49,976.29
15.461,-0.57,0.06,-0.13,7.14,-5.57,3.25,-0.21,0.64,2.49,976.29
15.462,-0.57,0.06,-0.13,7.14,-5.57,3.25,-0.32,0.68,3.49,976.29
15.463,-0.57,0.06,-0.13,2.16,-6.23,1.78,-0.32,0.68,3.49,976.29
15.492,-0.57,0.06,-0.13,2.16,-6.23,1.78,-0.32,0.68,3.49,976.28
15.495,-0.69,0.20,-0.12,2.16,-6.23,1.78,-0.32,0.68,3.49,976.28
15.501,-0.90,0.30,-0.29,2.16,-6.23,1.78,-0.32,0.68,3.49,976.28
15.503,-0.90,0.30,-0.29,2.16,-6.23,1.78,-0.28,0.21,3.92,976.28
15.505,-0.90,0.30,-0.29,0.93,-6.95,1.71,-0.28,0.21,3.92,976.28
15.537,-1.09,0.23,-0.40,0.93,-6.95,1.71,-0.28,0.21,3.92,976.28
15.543,-1.09,0.23,-0.40,0.93,-6.95,1.71,-0.28,0.21,3.92,976.28
15.545,-1.23,0.15,-0.46,0.93,-6.95,1.71,-0.28,0.21,3.92,976.28
15.547,-1.23,0.15,-0.46,0.93,-6.95,1.71,-0.43,0.45,3.27,976.28
15.549,-1.23,0.15,-0.46,-5.14,-6.06,0.10,-0.43,0.45,3.27,976.28
15.569,-1.23,-0.02,-0.35,-5.14,-6.06,0.10,-0.43,0.45,3.27,976.28
15.579,-0.98,-0.23,-0.24,-5.14,-6.06,0.10,-0.43,0.45,3.27,976.28
15.58,-0.98,-0.23,-0.24,-5.14,-6.06,0.10,-0.64,1.08,1.74,976.28
15.581,-0.98,-0.23,-0.24,-8.22,-8.91,-0.76,-0.64,1.08,1.74,976.28
15.599,-0.98,-0.23,-0.24,-8.22,-8.91,-0.76,-0.64,1.08,1.74,976.28
15.601,-0.49,0.37,-0.76,-8.22,-8.91,-0.76,-0.64,1.08,1.74,976.28
15.638,-0.49,0.37,-0.76,-8.19,-8.76,-0.62,-0.64,1.08,1.74,976.28
15.643,-2.68,4.31,-3.87,-8.19,-8.76,-0.62,-0.64,1.08,1.74,976.28
15.645,-2.68,4.31,-3.87,-8.19,-8.76,-0.62,0.05,0.99,0.03,976.28
15.647,-2.65,-0.11,4.30,-8.19,-8.76,-0.62,0.05,0.99,0.03,976.28
15.692,-2.65,-0.11,4.30,-8.19,-8.76,-0.62,0.05,0.99,0.03,976.28
15.695,0.17,-0.29,-2.47,-8.19,-8.76,-0.62,0.05,0.99,0.03,976.28
15.696,0.17,-0.29,-2.47,-8.19,-8.76,-0.62,-0.12,0.95,-2.42,976.28
15.698,0.17,-0.29,-2.47,-15.03,6.70,1.81,-0.12,0.95,-2.42,976.28
15.7,0.23,0.68,-0.71,-15.03,6.70,1.81,-0.12,0.95,-2.42,976.28
15.703,-0.41,1.68,0.37,-15.03,6.70,1.81,-0.12,0.95,-2.42,976.28
15.704,-0.41,1.68,0.37,-15.03,6.70,1.81,0.56,-1.25,0.01,976.28
15.706,-0.41,1.68,0.37,4.04,-1.38,-6.23,0.56,-1.25,0.01,976.28
15.717,-1.09,0.68,-0.61,4.04,-1.38,-6.23,0.56,-1.25,0.01,976.28
15.718,-1.09,0.68,-0.61,4.04,-1.38,-6.23,0.56,-1.25,0.01,976.28
15.74,-0.61,0.75,-0.26,4.04,-1.38,-6.23,0.56,-1.25,0.01,976.28
15.742,-0.61,0.75,-0.26,4.04,-1.38,-6.23,-0.01,0.48,-0.55,976.28
15.745,-0.61,0.75,-0.26,4.09,-1.28,-6.05,-0.01,0.48,-0.55,976.28
15.759,-0.46,0.92,-0.26,4.09,-1.28,-6.05,-0.01,0.48,-0.55,976.28
15.777,-0.58,0.84,-0.37,4.09,-1.28,-6.05,-0.01,0.48,-0.55,976.28
15.778,-0.58,0.84,-0.37,4.09,-1.28,-6.05,0.10,0.10,-0.02,976.28
15.779,-0.58,0.84,-0.37,-2.89,-0.33,-0.51,0.10,0.10,-0.02,976.28
15.78,-0.58,0.84,-0.37,-2.89,-0.33,-0.51,0.10,0.10,-0.02,976.28
15.797,-0.56,0.87,-0.31,-2.89,-0.33,-0.51,0.10,0.10,-0.02,976.28
15.818,-0.58,0.86,-0.36,-2.89,-0.33,-0.51,0.10,0.10,-0.02,976.28
15.821,-0.58,0.86,-0.36,-2.89,-0.33,-0.51,0.15,-0.26,0.21,976.28
15.822,-0.58,0.86,-0.36,-1.49,0.33,-0.17,0.15,-0.26,0.21,976.28
15.852,-0.45,0.90,-0.38,-1.49,0.33,-0.17,0.15,-0.26,0.21,976.28
15.854,-0.45,0.90,-0.38,-1.49,0.33,-0.17,0.15,-0.26,0.21,976.29
15.856,-0.49,0.90,-0.36,-1.49,0.33,-0.17,0.15,-0.26,0.21,976.29
15.857,-0.49,0.90,-0.36,-1.49,0.33,-0.17,0.16,-0.42,0.34,976.29
15.858,-0.49,0.90,-0.36,-1.52,0.29,-0.19,0.16,-0.42,0.34,976.29
15.889,-0.53,0.87,-0.38,-1.52,0.29,-0.19,0.16,-0.42,0.34,976.29
15.895,-0.49,0.83,-0.36,-1.52,0.29,-0.19,0.16,-0.42,0.34,976.29
15.896,-0.49,0.83,-0.36,-1.52,0.29,-0.19,0.05,-0.21,0.47,976.29
15.897,-0.49,0.83,-0.36,-0.80,0.60,-0.50,0.05,-0.21,0.47,976.29
15.898,-0.49,0.83,-0.36,-0.80,0.60,-0.50,0.05,-0.21,0.47,976.29
15.915,-0.43,0.92,-0.31,-0.80,0.60,-0.50,0.05,-0.21,0.47,976.29
15.937,-0.39,0.92,-0.29,-0.80,0.60,-0.50,0.05,-0.21,0.47,976.29
15.939,-0.39,0.92,-0.29,-0.80,0.60,-0.50,0.01,-0.30,0.57,976.29
15.94,-0.39,0.92,-0.29,-0.40,0.45,-0.03,0.01,-0.30,0.57,976.29
15.958,-0.34,0.91,-0.27,-0.40,0.45,-0.03,0.01,-0.30,0.57,976.29
15.96,-0.34,0.91,-0.27,-0.40,0.45,-0.03,0.01,-0.30,0.57,976.29
15.975,-0.26,0.99,-0.33,-0.40,0.45,-0.03,0.01,-0.30,0.57,976.29
15.977,-0.26,0.99,-0.33,-0.40,0.45,-0.03,0.04,-0.41,0.52,976.29
15.978,-0.26,0.99,-0.33,-0.51,0.37,-0.08,0.04,-0.41,0.52,976.29
15.995,-0.24,0.96,-0.32,-0.51,0.37,-0.08,0.04,-0.41,0.52,976.29
16.015,-0.33,0.90,-0.23,-0.51,0.37,-0.08,0.04,-0.41,0.52,976.29
16.017,-0.33,0.90,-0.23,-0.51,0.37,-0.08,0.05,-0.39,0.27,976.29
16.019,-0.33,0.90,-0.23,0.95,0.97,0.03,0.05,-0.39,0.27,976.29
16.021,-0.33,0.90,-0.23,0.95,0.97,0.03,0.05,-0.39,0.27,976.27
16.047,-0.30,0.98,-0.24,0.95,0.97,0.03,0.05,-0.39,0.27,976.27
16.055,-0.21,0.96,-0.31,0.95,0.97,0.03,0.05,-0.39,0.27,976.27
16.056,-0.21,0.96,-0.31,0.95,0.97,0.03,0.05,-0.32,0.00,976.27
16.056,-0.21,0.96,-0.31,0.96,0.89,0.45,0.05,-0.32,0.00,976.27
