time,gFx,gFy,gFz,ax,ay,az,wx,wy,wz,P
0.003,0.29,0.95,0.01,-0.03,-0.05,-0.02,-0.01,-0.04,0.00,1012.85
0.004,0.31,0.94,0.03,-0.03,-0.05,-0.02,-0.01,-0.04,0.00,1012.85
0.005,0.31,0.94,0.03,-0.03,-0.05,-0.02,0.01,-0.09,0.01,1012.85
0.006,0.31,0.94,0.03,0.03,0.03,0.09,0.01,-0.09,0.01,1012.85
0.037,0.31,0.94,0.03,0.03,0.03,0.09,0.05,0.02,-0.02,1012.85
0.038,0.31,0.94,0.03,0.04,0.03,0.10,0.05,0.02,-0.02,1012.85
0.044,0.31,0.94,0.03,0.04,0.03,0.10,0.05,0.02,-0.02,1012.84
0.056,0.32,0.94,0.02,0.04,0.03,0.10,0.05,0.02,-0.02,1012.84
0.075,0.32,0.94,0.02,0.04,0.03,0.10,0.08,0.05,-0.07,1012.84
0.076,0.32,0.94,0.02,0.15,-0.01,0.11,0.08,0.05,-0.07,1012.84
0.108,0.32,0.94,0.02,0.15,-0.01,0.11,0.08,0.05,-0.07,1012.84
0.129,0.31,0.95,0.04,0.15,-0.01,0.11,0.08,0.05,-0.07,1012.84
0.132,0.31,0.95,0.04,0.15,-0.01,0.11,0.13,-0.01,-0.09,1012.84
0.134,0.31,0.95,0.04,0.12,-0.06,0.24,0.13,-0.01,-0.09,1012.84
0.161,0.31,0.95,0.04,0.12,-0.06,0.24,0.19,-0.03,-0.11,1012.84
0.163,0.31,0.95,0.04,0.14,-0.06,0.27,0.19,-0.03,-0.11,1012.84
0.19,0.31,0.95,0.04,0.14,-0.06,0.27,0.19,-0.03,-0.11,1012.84
0.195,0.28,0.94,0.01,0.14,-0.06,0.27,0.19,-0.03,-0.11,1012.84
0.199,0.28,0.94,0.01,0.14,-0.06,0.27,0.21,-0.13,-0.12,1012.84
0.201,0.28,0.94,0.01,0.10,-0.03,0.32,0.21,-0.13,-0.12,1012.84
0.225,0.28,0.94,0.01,0.10,-0.03,0.32,0.21,-0.13,-0.12,1012.85
0.238,0.28,0.94,0.01,-0.03,-0.08,0.20,0.21,-0.13,-0.12,1012.85
0.242,0.29,0.94,0.03,-0.03,-0.08,0.20,0.21,-0.13,-0.12,1012.85
0.245,0.29,0.94,0.03,-0.03,-0.08,0.20,0.26,-0.21,-0.14,1012.85
0.284,0.29,0.94,0.03,-0.03,-0.08,0.20,0.35,-0.25,-0.16,1012.85
0.286,0.29,0.94,0.03,0.03,-0.09,0.35,0.35,-0.25,-0.16,1012.85
0.288,0.29,0.94,0.03,0.03,-0.09,0.35,0.35,-0.25,-0.16,1012.85
0.302,0.28,0.95,0.01,0.03,-0.09,0.35,0.35,-0.25,-0.16,1012.85
0.313,0.28,0.95,0.01,0.03,-0.09,0.35,0.45,-0.18,-0.19,1012.85
0.317,0.28,0.95,0.01,0.12,-0.14,0.80,0.45,-0.18,-0.19,1012.85
0.373,0.28,0.95,0.01,0.12,-0.14,0.80,0.45,-0.18,-0.19,1012.85
0.375,0.26,0.94,-0.09,0.12,-0.14,0.80,0.45,-0.18,-0.19,1012.85
0.375,0.26,0.94,-0.09,0.12,-0.14,0.80,0.47,-0.17,-0.22,1012.85
0.376,0.26,0.94,-0.09,0.06,-0.05,0.38,0.47,-0.17,-0.22,1012.85
0.393,0.26,0.94,-0.09,0.06,-0.05,0.38,0.41,-0.26,-0.19,1012.85
0.394,0.26,0.94,-0.09,0.13,-0.05,0.55,0.41,-0.26,-0.19,1012.85
0.415,0.26,0.94,-0.09,0.13,-0.05,0.55,0.41,-0.26,-0.19,1012.85
0.417,0.20,0.93,-0.13,0.13,-0.05,0.55,0.41,-0.26,-0.19,1012.85
0.437,0.20,0.93,-0.13,0.13,-0.05,0.55,0.35,-0.34,-0.13,1012.85
0.439,0.20,0.93,-0.13,-0.00,-0.13,-0.09,0.35,-0.34,-0.13,1012.85
0.465,0.20,0.93,-0.13,-0.00,-0.13,-0.09,0.35,-0.34,-0.13,1012.85
0.472,0.19,0.96,-0.15,-0.00,-0.13,-0.09,0.35,-0.34,-0.13,1012.85
0.473,0.19,0.96,-0.15,-0.00,-0.13,-0.09,0.34,-0.32,-0.03,1012.85
0.473,0.19,0.96,-0.15,-0.42,-0.24,-0.04,0.34,-0.32,-0.03,1012.85
0.513,0.19,0.96,-0.15,-0.42,-0.24,-0.04,0.29,-0.43,0.08,1012.85
0.515,0.19,0.96,-0.15,-0.42,-0.21,0.10,0.29,-0.43,0.08,1012.85
0.524,0.19,0.96,-0.15,-0.42,-0.21,0.10,0.29,-0.43,0.08,1012.83
0.531,0.21,1.00,-0.20,-0.42,-0.21,0.10,0.29,-0.43,0.08,1012.83
0.551,0.21,1.00,-0.20,-0.76,0.06,-0.50,0.29,-0.43,0.08,1012.83
0.553,0.21,1.00,-0.20,-0.76,0.06,-0.50,0.26,-0.33,0.07,1012.83
0.587,0.21,1.00,-0.20,-0.76,0.06,-0.50,0.26,-0.33,0.07,1012.83
0.591,0.30,0.96,-0.15,-0.76,0.06,-0.50,0.26,-0.33,0.07,1012.83
0.592,0.30,0.96,-0.15,0.03,0.33,-0.19,0.26,-0.33,0.07,1012.83
0.592,0.30,0.96,-0.15,0.03,0.33,-0.19,0.27,-0.22,0.04,1012.83
0.633,0.30,0.96,-0.15,0.03,0.34,-0.09,0.27,-0.22,0.04,1012.83
0.634,0.30,0.96,-0.15,0.03,0.34,-0.09,0.26,-0.05,0.02,1012.83
0.644,0.30,0.96,-0.15,0.03,0.34,-0.09,0.26,-0.05,0.02,1012.83
0.661,0.23,0.96,-0.27,0.03,0.34,-0.09,0.26,-0.05,0.02,1012.83
0.669,0.23,0.96,-0.27,0.03,0.34,-0.09,0.16,0.02,0.01,1012.83
0.67,0.23,0.96,-0.27,0.34,0.52,-0.32,0.16,0.02,0.01,1012.83
0.705,0.23,0.96,-0.27,0.34,0.52,-0.32,0.16,0.02,0.01,1012.83
0.713,0.20,0.96,-0.19,0.34,0.52,-0.32,0.16,0.02,0.01,1012.83
0.715,0.20,0.96,-0.19,0.34,0.52,-0.32,0.13,0.01,0.05,1012.83
0.717,0.20,0.96,-0.19,-0.29,0.04,-0.60,0.13,0.01,0.05,1012.83
0.749,0.20,0.96,-0.19,-0.29,0.04,-0.60,0.14,-0.01,0.14,1012.83
0.75,0.20,0.96,-0.19,-0.33,0.06,-0.54,0.14,-0.01,0.14,1012.83
0.78,0.20,0.96,-0.19,-0.33,0.06,-0.54,0.14,-0.01,0.14,1012.82
0.782,0.16,0.94,-0.21,-0.33,0.06,-0.54,0.14,-0.01,0.14,1012.82
0.788,0.16,0.94,-0.21,-0.33,0.06,-0.54,0.16,-0.00,0.29,1012.82
0.789,0.16,0.94,-0.21,-0.85,0.15,0.06,0.16,-0.00,0.29,1012.82
0.824,0.16,0.94,-0.21,-0.85,0.15,0.06,0.16,-0.00,0.29,1012.84
0.827,0.13,0.95,-0.21,-0.85,0.15,0.06,0.16,-0.00,0.29,1012.84
0.828,0.13,0.95,-0.21,-0.85,0.15,0.06,0.19,-0.06,0.49,1012.84
0.829,0.13,0.95,-0.21,-1.44,0.06,-0.10,0.19,-0.06,0.49,1012.84
0.878,0.13,0.95,-0.21,-1.44,0.06,-0.10,0.20,-0.16,0.67,1012.84
0.88,0.13,0.95,-0.21,-1.65,0.15,-0.01,0.20,-0.16,0.67,1012.84
0.883,0.13,0.95,-0.21,-1.65,0.15,-0.01,0.20,-0.16,0.67,1012.86
0.884,0.26,0.88,-0.25,-1.65,0.15,-0.01,0.20,-0.16,0.67,1012.86
0.907,0.26,0.88,-0.25,-1.65,0.15,-0.01,0.19,-0.19,0.75,1012.86
0.911,0.26,0.88,-0.25,-1.26,0.18,-0.02,0.19,-0.19,0.75,1012.86
0.944,0.26,0.88,-0.25,-1.26,0.18,-0.02,0.19,-0.19,0.75,1012.85
0.947,0.39,0.95,-0.25,-1.26,0.18,-0.02,0.19,-0.19,0.75,1012.85
0.947,0.39,0.95,-0.25,-1.26,0.18,-0.02,0.17,-0.23,0.72,1012.85
0.948,0.39,0.95,-0.25,-0.55,-0.25,-0.27,0.17,-0.23,0.72,1012.85
0.987,0.39,0.95,-0.25,-0.55,-0.25,-0.27,0.11,-0.10,0.62,1012.85
0.991,0.39,0.95,-0.25,-0.74,-0.15,-0.21,0.11,-0.10,0.62,1012.85
1.003,0.53,0.95,-0.35,-0.74,-0.15,-0.21,0.11,-0.10,0.62,1012.85
1.007,0.53,0.95,-0.35,-0.74,-0.15,-0.21,0.11,-0.10,0.62,1012.84
1.025,0.53,0.95,-0.35,-0.74,-0.15,-0.21,-0.04,0.05,0.33,1012.84
1.028,0.53,0.95,-0.35,0.54,0.71,-0.45,-0.04,0.05,0.33,1012.84
1.068,0.70,1.44,-0.42,0.54,0.71,-0.45,-0.04,0.05,0.33,1012.84
1.07,0.70,1.44,-0.42,0.54,0.71,-0.45,-0.40,0.06,-0.08,1012.84
1.07,0.70,1.44,-0.42,0.54,0.71,-0.45,-0.40,0.06,-0.08,1012.83
1.072,0.70,1.44,-0.42,1.87,1.35,-1.98,-0.40,0.06,-0.08,1012.83
1.124,0.70,1.44,-0.42,1.87,1.35,-1.98,-0.23,0.71,-0.57,1012.83
1.125,0.70,1.44,-0.42,1.98,1.23,-2.13,-0.23,0.71,-0.57,1012.83
1.126,-0.14,1.42,-0.05,1.98,1.23,-2.13,-0.23,0.71,-0.57,1012.83
1.127,-0.14,1.42,-0.05,1.98,1.23,-2.13,-0.23,0.71,-0.57,1012.83
1.144,-0.14,1.42,-0.05,1.98,1.23,-2.13,0.05,0.69,-0.11,1012.83
1.147,-0.14,1.42,-0.05,2.54,7.10,-0.42,0.05,0.69,-0.11,1012.83
1.183,0.33,1.28,-0.36,2.54,7.10,-0.42,0.05,0.69,-0.11,1012.83
1.184,0.33,1.28,-0.36,2.54,7.10,-0.42,0.21,-0.46,1.92,1012.83
1.186,0.33,1.28,-0.36,2.54,7.10,-0.42,0.21,-0.46,1.92,1012.81
1.186,0.33,1.28,-0.36,-8.44,3.36,0.91,0.21,-0.46,1.92,1012.81
1.222,0.33,1.28,-0.36,-8.44,3.36,0.91,0.79,-0.39,2.78,1012.81
1.224,0.33,1.28,-0.36,-9.18,3.87,1.22,0.79,-0.39,2.78,1012.81
1.243,0.80,1.46,-0.37,-9.18,3.87,1.22,0.79,-0.39,2.78,1012.81
1.246,0.80,1.46,-0.37,-9.18,3.87,1.22,0.79,-0.39,2.78,1012.80
1.268,0.80,1.46,-0.37,-9.18,3.87,1.22,1.35,1.29,2.58,1012.80
1.269,0.80,1.46,-0.37,1.19,5.66,-1.52,1.35,1.29,2.58,1012.80
1.328,0.52,1.36,-0.37,1.19,5.66,-1.52,1.35,1.29,2.58,1012.80
1.332,0.52,1.36,-0.37,1.19,5.66,-1.52,1.39,2.56,2.50,1012.80
1.335,0.52,1.36,-0.37,0.84,7.33,-1.29,1.39,2.56,2.50,1012.80
1.337,0.52,1.36,-0.37,0.84,7.33,-1.29,1.39,2.56,2.50,1012.81
1.341,0.52,1.36,-0.37,0.84,7.33,-1.29,0.87,0.91,2.62,1012.81
1.344,0.52,1.36,-0.37,0.07,8.02,-1.30,0.87,0.91,2.62,1012.81
1.361,0.48,0.76,-0.25,0.07,8.02,-1.30,0.87,0.91,2.62,1012.81
1.363,0.48,0.76,-0.25,0.07,8.02,-1.30,0.87,0.91,2.62,1012.82
1.388,0.48,0.76,-0.25,0.07,8.02,-1.30,0.55,-0.68,2.14,1012.82
1.389,0.48,0.76,-0.25,-3.25,5.96,-0.67,0.55,-0.68,2.14,1012.82
1.434,0.38,0.51,-0.10,-3.25,5.96,-0.67,0.55,-0.68,2.14,1012.82
1.438,0.38,0.51,-0.10,-3.25,5.96,-0.67,0.37,-0.73,1.21,1012.82
1.44,0.38,0.51,-0.10,-3.70,0.88,0.87,0.37,-0.73,1.21,1012.82
1.442,0.38,0.51,-0.10,-3.70,0.88,0.87,0.37,-0.73,1.21,1012.81
1.459,0.38,0.51,-0.10,-3.70,0.88,0.87,0.18,-0.27,-0.02,1012.81
1.46,0.38,0.51,-0.10,-3.60,0.88,0.97,0.18,-0.27,-0.02,1012.81
1.479,-0.04,0.09,-0.08,-3.60,0.88,0.97,0.18,-0.27,-0.02,1012.81
1.484,-0.04,0.09,-0.08,-3.60,0.88,0.97,0.18,-0.27,-0.02,1012.81
1.509,-0.04,0.09,-0.08,-3.60,0.88,0.97,-0.04,-0.75,-1.28,1012.81
1.511,-0.04,0.09,-0.08,-4.91,-1.82,2.65,-0.04,-0.75,-1.28,1012.81
1.539,0.07,0.07,-0.10,-4.91,-1.82,2.65,-0.04,-0.75,-1.28,1012.81
1.541,0.07,0.07,-0.10,-4.91,-1.82,2.65,-0.38,-1.56,-2.32,1012.81
1.541,0.07,0.07,-0.10,-7.68,-6.00,2.57,-0.38,-1.56,-2.32,1012.81
1.542,0.07,0.07,-0.10,-7.68,-6.00,2.57,-0.38,-1.56,-2.32,1012.80
1.578,0.07,0.07,-0.10,-7.68,-6.00,2.57,-0.75,-1.79,-2.97,1012.80
1.579,0.07,0.07,-0.10,-6.52,-6.72,2.75,-0.75,-1.79,-2.97,1012.80
1.627,0.59,-0.07,-0.15,-6.52,-6.72,2.75,-0.75,-1.79,-2.97,1012.80
1.634,0.59,-0.07,-0.15,-6.52,-6.72,2.75,-0.75,-1.79,-2.97,1012.80
1.635,0.59,-0.07,-0.15,-6.52,-6.72,2.75,-1.05,-1.37,-2.93,1012.80
1.635,0.59,-0.07,-0.15,-2.32,-7.06,2.82,-1.05,-1.37,-2.93,1012.80
1.658,1.22,-0.18,-0.41,-2.32,-7.06,2.82,-1.05,-1.37,-2.93,1012.80
1.66,1.22,-0.18,-0.41,-2.32,-7.06,2.82,-0.98,-0.74,-1.93,1012.80
1.661,1.22,-0.18,-0.41,4.27,-9.21,1.13,-0.98,-0.74,-1.93,1012.80
1.675,1.22,-0.18,-0.41,4.27,-9.21,1.13,-0.98,-0.74,-1.93,1012.79
1.702,1.22,-0.18,-0.41,4.27,-9.21,1.13,-0.48,-0.08,-0.78,1012.79
1.705,1.22,-0.18,-0.41,4.45,-9.23,0.98,-0.48,-0.08,-0.78,1012.79
1.717,1.36,-0.12,-1.10,4.45,-9.23,0.98,-0.48,-0.08,-0.78,1012.79
1.721,1.36,-0.12,-1.10,4.45,-9.23,0.98,-0.48,-0.08,-0.78,1012.80
1.737,1.36,-0.12,-1.10,4.45,-9.23,0.98,0.15,0.38,0.24,1012.80
1.739,1.36,-0.12,-1.10,8.40,-9.79,-0.80,0.15,0.38,0.24,1012.80
1.785,0.09,1.82,-0.28,8.40,-9.79,-0.80,0.15,0.38,0.24,1012.80
1.787,0.09,1.82,-0.28,8.40,-9.79,-0.80,0.25,1.75,-0.05,1012.80
1.788,0.09,1.82,-0.28,13.32,11.88,-2.45,0.25,1.75,-0.05,1012.80
1.788,0.09,1.82,-0.28,13.32,11.88,-2.45,0.25,1.75,-0.05,1012.82
1.823,0.09,1.82,-0.28,13.32,11.88,-2.45,-0.16,-1.02,0.47,1012.82
1.825,0.09,1.82,-0.28,13.08,11.74,-2.29,-0.16,-1.02,0.47,1012.82
1.836,1.31,1.10,-0.21,13.08,11.74,-2.29,-0.16,-1.02,0.47,1012.82
1.843,1.31,1.10,-0.21,13.08,11.74,-2.29,-0.16,-1.02,0.47,1012.82
1.855,1.31,1.10,-0.21,-8.64,-13.66,-1.14,-0.16,-1.02,0.47,1012.82
1.858,1.31,1.10,-0.21,-8.64,-13.66,-1.14,-0.11,-0.45,0.35,1012.82
1.894,0.41,0.51,-0.39,-8.64,-13.66,-1.14,-0.11,-0.45,0.35,1012.82
1.896,0.41,0.51,-0.39,-8.64,-13.66,-1.14,0.16,0.34,-0.60,1012.82
1.897,0.41,0.51,-0.39,6.40,8.02,-1.34,0.16,0.34,-0.60,1012.82
1.902,0.41,0.51,-0.39,6.40,8.02,-1.34,0.16,0.34,-0.60,1012.82
1.935,0.41,0.51,-0.39,6.46,7.77,-1.38,0.16,0.34,-0.60,1012.82
1.938,0.41,0.51,-0.39,6.46,7.77,-1.38,-0.05,0.26,-0.65,1012.82
1.954,0.55,0.88,-0.43,6.46,7.77,-1.38,-0.05,0.26,-0.65,1012.82
1.962,0.55,0.88,-0.43,6.46,7.77,-1.38,-0.05,0.26,-0.65,1012.79
1.987,0.55,0.88,-0.43,6.46,7.77,-1.38,-0.28,-0.03,-0.79,1012.79
1.989,0.55,0.88,-0.43,1.22,-1.27,-1.47,-0.28,-0.03,-0.79,1012.79
2.019,0.48,0.87,-0.41,1.22,-1.27,-1.47,-0.28,-0.03,-0.79,1012.79
2.022,0.48,0.87,-0.41,1.22,-1.27,-1.47,-0.36,0.38,-0.96,1012.79
2.023,0.48,0.87,-0.41,1.07,-0.86,-0.94,-0.36,0.38,-0.96,1012.79
2.024,0.48,0.87,-0.41,1.07,-0.86,-0.94,-0.36,0.38,-0.96,1012.78
2.064,0.48,0.87,-0.41,1.07,-0.86,-0.94,-0.49,0.33,-1.04,1012.78
2.066,0.48,0.87,-0.41,1.37,-1.05,-1.14,-0.49,0.33,-1.04,1012.78
2.073,0.19,0.85,-0.34,1.37,-1.05,-1.14,-0.49,0.33,-1.04,1012.78
2.089,0.19,0.85,-0.34,1.37,-1.05,-1.14,-0.49,0.33,-1.04,1012.80
2.091,0.19,0.85,-0.34,1.37,-1.05,-1.14,-0.56,-0.03,-0.84,1012.80
2.092,0.19,0.85,-0.34,0.19,-0.52,-1.17,-0.56,-0.03,-0.84,1012.80
2.131,0.10,0.87,-0.20,0.19,-0.52,-1.17,-0.56,-0.03,-0.84,1012.80
2.133,0.10,0.87,-0.20,0.19,-0.52,-1.17,-0.48,-0.11,-0.59,1012.80
2.136,0.10,0.87,-0.20,-1.38,-0.48,-0.19,-0.48,-0.11,-0.59,1012.80
2.141,0.10,0.87,-0.20,-1.38,-0.48,-0.19,-0.48,-0.11,-0.59,1012.80
2.172,0.10,0.87,-0.20,-1.38,-0.48,-0.19,-0.30,-0.13,-0.24,1012.80
2.173,0.10,0.87,-0.20,-1.26,-0.53,-0.28,-0.30,-0.13,-0.24,1012.80
2.223,0.13,0.91,-0.16,-1.26,-0.53,-0.28,-0.30,-0.13,-0.24,1012.80
2.226,0.13,0.91,-0.16,-1.26,-0.53,-0.28,-0.30,-0.13,-0.24,1012.80
2.227,0.13,0.91,-0.16,-1.26,-0.53,-0.28,-0.12,-0.17,0.11,1012.80
2.228,0.13,0.91,-0.16,-1.99,-0.36,0.83,-0.12,-0.17,0.11,1012.80
2.26,0.21,0.95,-0.23,-1.99,-0.36,0.83,-0.12,-0.17,0.11,1012.80
2.262,0.21,0.95,-0.23,-1.99,-0.36,0.83,-0.00,-0.15,0.33,1012.80
2.263,0.21,0.95,-0.23,-1.39,-0.18,0.58,-0.00,-0.15,0.33,1012.80
2.264,0.21,0.95,-0.23,-1.39,-0.18,0.58,-0.00,-0.15,0.33,1012.79
2.294,0.21,0.95,-0.23,-1.39,-0.18,0.58,0.05,-0.02,0.43,1012.79
2.296,0.21,0.95,-0.23,-1.51,-0.13,0.59,0.05,-0.02,0.43,1012.79
2.308,0.33,1.01,-0.37,-1.51,-0.13,0.59,0.05,-0.02,0.43,1012.79
2.321,0.33,1.01,-0.37,-1.51,-0.13,0.59,0.05,-0.02,0.43,1012.78
2.329,0.33,1.01,-0.37,-1.51,-0.13,0.59,-0.07,0.04,0.43,1012.78
2.33,0.33,1.01,-0.37,-0.96,0.60,-0.04,-0.07,0.04,0.43,1012.78
2.37,0.67,1.04,-0.40,-0.96,0.60,-0.04,-0.07,0.04,0.43,1012.78
2.373,0.67,1.04,-0.40,-0.96,0.60,-0.04,-0.36,0.19,0.13,1012.78
2.375,0.67,1.04,-0.40,0.74,1.04,-1.95,-0.36,0.19,0.13,1012.78
2.411,0.67,1.04,-0.40,0.74,1.04,-1.95,-0.36,0.19,0.13,1012.78
2.413,0.67,1.04,-0.40,0.74,1.04,-1.95,-0.52,0.51,-0.48,1012.78
2.417,0.67,1.04,-0.40,0.86,0.91,-2.16,-0.52,0.51,-0.48,1012.78
2.428,0.27,1.53,-0.18,0.86,0.91,-2.16,-0.52,0.51,-0.48,1012.78
2.441,0.27,1.53,-0.18,0.86,0.91,-2.16,-0.52,0.51,-0.48,1012.79
2.447,0.27,1.53,-0.18,0.86,0.91,-2.16,-0.40,0.49,-0.75,1012.79
2.45,0.27,1.53,-0.18,3.69,2.05,-1.37,-0.40,0.49,-0.75,1012.79
2.489,0.27,1.53,-0.18,-3.40,6.24,1.22,-0.40,0.49,-0.75,1012.79
2.491,-0.33,1.24,-0.16,-3.40,6.24,1.22,-0.40,0.49,-0.75,1012.79
2.492,-0.33,1.24,-0.16,-3.40,6.24,1.22,-0.14,0.51,0.28,1012.79
2.522,-0.33,1.24,-0.16,-3.40,6.24,1.22,-0.14,0.51,0.28,1012.80
2.529,-0.33,1.24,-0.16,-4.11,6.46,1.33,-0.14,0.51,0.28,1012.80
2.533,-0.33,1.24,-0.16,-4.11,6.46,1.33,-0.02,-1.03,2.36,1012.80
2.546,0.69,1.42,-0.50,-4.11,6.46,1.33,-0.02,-1.03,2.36,1012.80
2.564,0.69,1.42,-0.50,-4.11,6.46,1.33,-0.02,-1.03,2.36,1012.81
2.569,0.69,1.42,-0.50,-5.89,2.67,-1.72,-0.02,-1.03,2.36,1012.81
2.57,0.69,1.42,-0.50,-5.89,2.67,-1.72,0.18,-2.20,3.38,1012.81
2.606,0.73,1.26,-0.30,-5.89,2.67,-1.72,0.18,-2.20,3.38,1012.81
2.608,0.73,1.26,-0.30,-5.89,2.67,-1.72,0.67,-1.15,3.14,1012.81
2.609,0.73,1.26,-0.30,2.23,6.19,-0.74,0.67,-1.15,3.14,1012.81
2.621,0.73,1.26,-0.30,2.23,6.19,-0.74,0.67,-1.15,3.14,1012.80
2.646,0.73,1.26,-0.30,1.33,6.86,-0.53,0.67,-1.15,3.14,1012.80
2.651,0.73,1.26,-0.30,1.33,6.86,-0.53,1.23,0.65,2.66,1012.80
2.671,0.70,1.05,-0.40,1.33,6.86,-0.53,1.23,0.65,2.66,1012.80
2.702,0.70,1.05,-0.40,1.33,6.86,-0.53,1.23,0.65,2.66,1012.79
2.704,0.70,1.05,-0.40,1.33,6.86,-0.53,1.32,1.16,2.32,1012.79
2.705,0.70,1.05,-0.40,0.10,5.32,0.21,1.32,1.16,2.32,1012.79
2.724,0.45,0.67,-0.27,0.10,5.32,0.21,1.32,1.16,2.32,1012.79
2.726,0.45,0.67,-0.27,0.10,5.32,0.21,1.05,0.67,2.04,1012.79
2.73,0.45,0.67,-0.27,-1.69,3.14,-0.60,1.05,0.67,2.04,1012.79
2.742,0.45,0.67,-0.27,-1.69,3.14,-0.60,1.05,0.67,2.04,1012.77
2.763,0.45,0.67,-0.27,-1.69,3.14,-0.60,0.85,0.19,1.44,1012.77
2.766,0.45,0.67,-0.27,-2.00,3.65,-0.46,0.85,0.19,1.44,1012.77
2.788,0.11,0.48,-0.15,-2.00,3.65,-0.46,0.85,0.19,1.44,1012.77
2.821,0.11,0.48,-0.15,-2.00,3.65,-0.46,0.85,0.19,1.44,1012.76
2.823,0.11,0.48,-0.15,-2.00,3.65,-0.46,0.64,-0.32,0.53,1012.76
2.823,0.11,0.48,-0.15,-4.70,1.10,1.26,0.64,-0.32,0.53,1012.76
2.841,-0.06,0.16,-0.11,-4.70,1.10,1.26,0.64,-0.32,0.53,1012.76
2.843,-0.06,0.16,-0.11,-4.70,1.10,1.26,0.36,-0.59,-0.73,1012.76
2.843,-0.06,0.16,-0.11,-7.46,-2.21,2.81,0.36,-0.59,-0.73,1012.76
2.861,-0.06,0.16,-0.11,-7.46,-2.21,2.81,0.36,-0.59,-0.73,1012.75
2.885,-0.06,0.16,-0.11,-7.46,-2.21,2.81,-0.03,-1.25,-1.89,1012.75
2.888,-0.06,0.16,-0.11,-6.74,-2.73,3.12,-0.03,-1.25,-1.89,1012.75
2.917,0.16,0.04,-0.14,-6.74,-2.73,3.12,-0.03,-1.25,-1.89,1012.75
2.92,0.16,0.04,-0.14,-6.74,-2.73,3.12,-0.35,-1.49,-2.73,1012.75
2.921,0.16,0.04,-0.14,-6.75,-4.93,2.88,-0.35,-1.49,-2.73,1012.75
2.922,0.16,0.04,-0.14,-6.75,-4.93,2.88,-0.35,-1.49,-2.73,1012.74
2.971,0.67,0.02,-0.19,-6.75,-4.93,2.88,-0.35,-1.49,-2.73,1012.74
2.975,0.67,0.02,-0.19,-6.75,-4.93,2.88,-0.57,-1.12,-2.95,1012.74
2.977,0.67,0.02,-0.19,-1.92,-7.17,3.09,-0.57,-1.12,-2.95,1012.74
2.981,0.67,0.02,-0.19,-1.92,-7.17,3.09,-0.57,-1.12,-2.95,1012.74
3.0,0.67,0.02,-0.19,-1.92,-7.17,3.09,-0.71,-0.63,-2.17,1012.74
3.001,0.67,0.02,-0.19,-1.16,-7.56,2.94,-0.71,-0.63,-2.17,1012.74
3.02,1.20,0.15,-0.35,-1.16,-7.56,2.94,-0.71,-0.63,-2.17,1012.74
3.04,1.20,0.15,-0.35,-1.16,-7.56,2.94,-0.71,-0.26,-0.98,1012.74
3.042,1.20,0.15,-0.35,4.90,-6.97,1.62,-0.71,-0.26,-0.98,1012.74
3.043,1.20,0.15,-0.35,4.90,-6.97,1.62,-0.71,-0.26,-0.98,1012.74
3.086,1.15,-0.12,-0.99,4.90,-6.97,1.62,-0.71,-0.26,-0.98,1012.74
3.088,1.15,-0.12,-0.99,4.90,-6.97,1.62,-0.24,0.15,-0.11,1012.74
3.089,1.15,-0.12,-0.99,7.39,-6.45,0.32,-0.24,0.15,-0.11,1012.74
3.115,1.15,-0.12,-0.99,7.39,-6.45,0.32,-0.24,0.15,-0.11,1012.74
3.119,1.15,-0.12,-0.99,7.39,-6.45,0.32,0.35,1.15,0.12,1012.74
3.121,1.15,-0.12,-0.99,7.06,-6.27,0.23,0.35,1.15,0.12,1012.74
3.139,0.64,2.06,-0.32,7.06,-6.27,0.23,0.35,1.15,0.12,1012.74
3.159,0.64,2.06,-0.32,7.06,-6.27,0.23,0.07,1.25,-0.33,1012.74
3.16,0.64,2.06,-0.32,7.71,-1.03,-4.52,0.07,1.25,-0.33,1012.74
3.161,0.64,2.06,-0.32,7.71,-1.03,-4.52,0.07,1.25,-0.33,1012.74
3.197,0.50,0.12,-0.35,7.71,-1.03,-4.52,0.07,1.25,-0.33,1012.74
3.199,0.50,0.12,-0.35,7.71,-1.03,-4.52,-0.44,-1.16,0.21,1012.74
3.2,0.50,0.12,-0.35,-2.20,4.69,-1.32,-0.44,-1.16,0.21,1012.74
3.221,0.50,0.12,-0.35,-2.20,4.69,-1.32,-0.44,-1.16,0.21,1012.75
3.237,0.50,0.12,-0.35,-2.09,4.55,-1.34,-0.44,-1.16,0.21,1012.75
3.241,0.50,0.12,-0.35,-2.09,4.55,-1.34,-0.39,-0.41,-0.04,1012.75
3.257,0.76,1.06,-0.49,-2.09,4.55,-1.34,-0.39,-0.41,-0.04,1012.75
3.278,0.76,1.06,-0.49,-2.09,4.55,-1.34,-0.25,0.13,-0.59,1012.75
3.279,0.76,1.06,-0.49,3.00,0.09,-0.62,-0.25,0.13,-0.59,1012.75
3.28,0.76,1.06,-0.49,3.00,0.09,-0.62,-0.25,0.13,-0.59,1012.76
3.317,0.57,0.92,-0.38,3.00,0.09,-0.62,-0.25,0.13,-0.59,1012.76
3.318,0.57,0.92,-0.38,3.00,0.09,-0.62,-0.34,-0.05,-0.79,1012.76
3.319,0.57,0.92,-0.38,1.91,-1.89,-0.21,-0.34,-0.05,-0.79,1012.76
3.339,0.57,0.92,-0.38,1.91,-1.89,-0.21,-0.34,-0.05,-0.79,1012.76
3.356,0.57,0.92,-0.38,1.91,-1.89,-0.21,-0.26,-0.04,-0.89,1012.76
3.358,0.57,0.92,-0.38,2.16,-2.03,-0.28,-0.26,-0.04,-0.89,1012.76
3.386,0.50,0.77,-0.34,2.16,-2.03,-0.28,-0.26,-0.04,-0.89,1012.76
3.396,0.50,0.77,-0.34,2.16,-2.03,-0.28,-0.08,0.51,-1.12,1012.76
3.397,0.50,0.77,-0.34,2.22,0.79,0.33,-0.08,0.51,-1.12,1012.76
3.417,0.50,0.77,-0.34,2.22,0.79,0.33,-0.08,0.51,-1.12,1012.76
3.435,0.21,0.84,-0.44,2.22,0.79,0.33,-0.08,0.51,-1.12,1012.76
3.437,0.21,0.84,-0.44,2.22,0.79,0.33,-0.21,0.47,-1.05,1012.76
3.438,0.21,0.84,-0.44,0.51,-0.42,-0.61,-0.21,0.47,-1.05,1012.76
3.46,0.21,0.84,-0.44,0.51,-0.42,-0.61,-0.21,0.47,-1.05,1012.76
3.489,0.21,0.84,-0.44,0.74,-0.55,-0.75,-0.21,0.47,-1.05,1012.76
3.491,0.21,0.84,-0.44,0.74,-0.55,-0.75,-0.33,0.34,-0.82,1012.76
3.517,0.04,0.86,-0.29,0.74,-0.55,-0.75,-0.33,0.34,-0.82,1012.76
3.519,0.04,0.86,-0.29,0.74,-0.55,-0.75,-0.24,0.13,-0.47,1012.76
3.519,0.04,0.86,-0.29,-1.42,-0.67,-0.98,-0.24,0.13,-0.47,1012.76
3.52,0.04,0.86,-0.29,-1.42,-0.67,-0.98,-0.24,0.13,-0.47,1012.76
3.554,0.12,0.85,-0.26,-1.42,-0.67,-0.98,-0.24,0.13,-0.47,1012.76
3.557,0.12,0.85,-0.26,-1.42,-0.67,-0.98,-0.13,-0.08,-0.01,1012.76
3.559,0.12,0.85,-0.26,-2.54,-0.20,0.40,-0.13,-0.08,-0.01,1012.76
3.587,0.12,0.85,-0.26,-2.54,-0.20,0.40,-0.13,-0.08,-0.01,1012.75
3.592,0.12,0.85,-0.26,-2.54,-0.20,0.40,-0.05,-0.14,0.31,1012.75
3.593,0.12,0.85,-0.26,-2.59,-0.17,0.40,-0.05,-0.14,0.31,1012.75
3.612,0.23,0.95,-0.32,-2.59,-0.17,0.40,-0.05,-0.14,0.31,1012.75
3.632,0.23,0.95,-0.32,-2.59,-0.17,0.40,-0.02,-0.10,0.50,1012.75
3.633,0.23,0.95,-0.32,-1.55,-0.19,0.59,-0.02,-0.10,0.50,1012.75
3.639,0.23,0.95,-0.32,-1.55,-0.19,0.59,-0.02,-0.10,0.50,1012.74
3.686,0.45,0.99,-0.44,-1.55,-0.19,0.59,-0.02,-0.10,0.50,1012.74
3.689,0.45,0.99,-0.44,-1.55,-0.19,0.59,-0.14,-0.02,0.47,1012.74
3.692,0.45,0.99,-0.44,-0.33,1.00,-0.54,-0.14,-0.02,0.47,1012.74
3.722,0.45,0.99,-0.44,-0.33,1.00,-0.54,-0.14,-0.02,0.47,1012.73
3.725,0.45,0.99,-0.44,-0.40,0.97,-0.65,-0.14,-0.02,0.47,1012.73
3.728,0.45,0.99,-0.44,-0.40,0.97,-0.65,-0.30,0.18,0.17,1012.73
3.732,0.66,1.21,-0.37,-0.40,0.97,-0.65,-0.30,0.18,0.17,1012.73
3.751,0.66,1.21,-0.37,-0.40,0.97,-0.65,-0.33,0.64,-0.44,1012.73
3.752,0.66,1.21,-0.37,2.23,1.27,-1.81,-0.33,0.64,-0.44,1012.73
3.759,0.66,1.21,-0.37,2.23,1.27,-1.81,-0.33,0.64,-0.44,1012.73
3.792,-0.11,1.50,-0.03,2.23,1.27,-1.81,-0.33,0.64,-0.44,1012.73
3.793,-0.11,1.50,-0.03,2.23,1.27,-1.81,-0.47,0.17,-0.33,1012.73
3.794,-0.11,1.50,-0.03,1.66,4.64,-0.38,-0.47,0.17,-0.33,1012.73
3.826,-0.11,1.50,-0.03,1.66,4.64,-0.38,-0.47,0.17,-0.33,1012.73
3.829,-0.11,1.50,-0.03,1.66,4.64,-0.38,-0.23,-0.08,1.17,1012.73
3.83,-0.11,1.50,-0.03,1.24,4.70,-0.44,-0.23,-0.08,1.17,1012.73
3.851,0.31,1.31,-0.50,1.24,4.70,-0.44,-0.23,-0.08,1.17,1012.73
3.887,0.31,1.31,-0.50,1.24,4.70,-0.44,0.37,-0.92,3.05,1012.73
3.889,0.31,1.31,-0.50,-6.45,5.54,2.83,0.37,-0.92,3.05,1012.73
3.889,0.31,1.31,-0.50,-6.45,5.54,2.83,0.37,-0.92,3.05,1012.73
3.939,1.11,1.40,-0.41,-6.45,5.54,2.83,0.37,-0.92,3.05,1012.73
3.942,1.11,1.40,-0.41,-6.45,5.54,2.83,0.85,-0.81,3.62,1012.73
3.943,1.11,1.40,-0.41,1.66,5.99,-3.23,0.85,-0.81,3.62,1012.73
3.945,1.11,1.40,-0.41,1.66,5.99,-3.23,0.85,-0.81,3.62,1012.74
3.948,1.11,1.40,-0.41,1.66,5.99,-3.23,1.18,1.63,2.84,1012.74
3.948,1.11,1.40,-0.41,0.62,6.69,-3.23,1.18,1.63,2.84,1012.74
3.99,0.65,1.09,-0.33,0.62,6.69,-3.23,1.18,1.63,2.84,1012.74
3.992,0.65,1.09,-0.33,2.43,5.98,-0.41,1.18,1.63,2.84,1012.74
3.993,0.65,1.09,-0.33,2.43,5.98,-0.41,1.08,2.36,2.33,1012.74
3.998,0.65,1.09,-0.33,2.43,5.98,-0.41,1.08,2.36,2.33,1012.74
4.046,0.39,0.67,-0.32,2.43,5.98,-0.41,1.08,2.36,2.33,1012.74
4.047,0.39,0.67,-0.32,2.43,5.98,-0.41,0.60,0.57,2.18,1012.74
4.048,0.39,0.67,-0.32,-3.09,4.11,-0.60,0.60,0.57,2.18,1012.74
4.058,0.39,0.67,-0.32,-3.09,4.11,-0.60,0.60,0.57,2.18,1012.73
4.076,0.39,0.67,-0.32,-3.09,4.11,-0.60,0.38,-0.56,1.78,1012.73
4.078,0.39,0.67,-0.32,-3.34,4.65,-0.34,0.38,-0.56,1.78,1012.73
4.118,0.45,0.53,-0.17,-3.34,4.65,-0.34,0.38,-0.56,1.78,1012.73
4.12,0.45,0.53,-0.17,-3.34,4.65,-0.34,0.33,-0.26,0.92,1012.73
4.121,0.45,0.53,-0.17,-4.36,0.61,0.47,0.33,-0.26,0.92,1012.73
4.122,0.45,0.53,-0.17,-4.36,0.61,0.47,0.33,-0.26,0.92,1012.74
4.147,0.14,0.26,-0.19,-4.36,0.61,0.47,0.33,-0.26,0.92,1012.74
4.151,0.14,0.26,-0.19,-4.36,0.61,0.47,0.18,-0.19,-0.04,1012.74
4.153,0.14,0.26,-0.19,-4.48,0.05,1.62,0.18,-0.19,-0.04,1012.74
4.179,0.14,0.26,-0.19,-4.48,0.05,1.62,0.18,-0.19,-0.04,1012.73
4.207,0.14,0.26,-0.19,-4.12,-0.29,1.77,0.18,-0.19,-0.04,1012.73
4.211,0.14,0.26,-0.19,-4.12,-0.29,1.77,0.01,-0.55,-1.09,1012.73
4.213,0.04,0.06,-0.20,-4.12,-0.29,1.77,0.01,-0.55,-1.09,1012.73
4.249,0.04,0.06,-0.20,-4.12,-0.29,1.77,-0.19,-1.15,-2.11,1012.73
4.254,0.04,0.06,-0.20,-6.27,-4.12,1.86,-0.19,-1.15,-2.11,1012.73
4.255,0.04,0.06,-0.20,-6.27,-4.12,1.86,-0.19,-1.15,-2.11,1012.73
4.267,0.32,0.01,-0.23,-6.27,-4.12,1.86,-0.19,-1.15,-2.11,1012.73
4.268,0.32,0.01,-0.23,-6.27,-4.12,1.86,-0.41,-1.69,-2.76,1012.73
4.27,0.32,0.01,-0.23,-5.62,-6.29,1.93,-0.41,-1.69,-2.76,1012.73
4.299,0.32,0.01,-0.23,-5.62,-6.29,1.93,-0.41,-1.69,-2.76,1012.71
4.304,0.32,0.01,-0.23,-5.62,-6.29,1.93,-0.51,-1.15,-2.99,1012.71
4.305,0.32,0.01,-0.23,-4.56,-6.92,2.01,-0.51,-1.15,-2.99,1012.71
4.326,0.82,0.01,-0.30,-4.56,-6.92,2.01,-0.51,-1.15,-2.99,1012.71
4.343,0.82,0.01,-0.30,-4.56,-6.92,2.01,-0.51,-0.53,-2.53,1012.71
4.345,0.82,0.01,-0.30,0.96,-7.25,1.72,-0.51,-0.53,-2.53,1012.71
4.357,0.82,0.01,-0.30,0.96,-7.25,1.72,-0.51,-0.53,-2.53,1012.70
4.385,0.82,0.01,-0.30,5.06,-7.47,0.29,-0.51,-0.53,-2.53,1012.70
4.387,1.03,-0.05,-0.37,5.06,-7.47,0.29,-0.51,-0.53,-2.53,1012.70
4.388,1.03,-0.05,-0.37,5.06,-7.47,0.29,-0.39,-0.61,-1.49,1012.70
4.418,1.03,-0.05,-0.37,5.06,-7.47,0.29,-0.39,-0.61,-1.49,1012.70
4.422,1.03,-0.05,-0.37,5.06,-7.47,0.29,0.31,0.27,-0.54,1012.70
4.423,1.03,-0.05,-0.37,5.09,-7.37,0.34,0.31,0.27,-0.54,1012.70
4.443,1.95,2.26,-0.34,5.09,-7.37,0.34,0.31,0.27,-0.54,1012.70
4.463,1.95,2.26,-0.34,5.09,-7.37,0.34,0.23,2.09,0.13,1012.70
4.466,1.95,2.26,-0.34,7.23,-10.84,-2.42,0.23,2.09,0.13,1012.70
4.489,1.95,2.26,-0.34,7.23,-10.84,-2.42,0.23,2.09,0.13,1012.72
4.53,-0.56,-0.64,-0.82,7.23,-10.84,-2.42,0.23,2.09,0.13,1012.72
4.533,-0.56,-0.64,-0.82,7.23,-10.84,-2.42,0.01,-0.23,-0.60,1012.72
4.536,-0.56,-0.64,-0.82,4.66,17.82,-2.57,0.01,-0.23,-0.60,1012.72
4.542,-0.56,-0.64,-0.82,4.66,17.82,-2.57,0.01,-0.23,-0.60,1012.73
4.545,-0.56,-0.64,-0.82,4.66,17.82,-2.57,-0.52,-1.38,0.73,1012.73
4.547,-0.56,-0.64,-0.82,4.58,17.56,-2.47,-0.52,-1.38,0.73,1012.73
4.562,1.20,1.47,-0.52,4.58,17.56,-2.47,-0.52,-1.38,0.73,1012.73
4.583,1.20,1.47,-0.52,2.86,-7.06,1.50,-0.52,-1.38,0.73,1012.73
4.585,1.20,1.47,-0.52,2.86,-7.06,1.50,-0.06,0.41,-0.85,1012.73
4.596,1.20,1.47,-0.52,2.86,-7.06,1.50,-0.06,0.41,-0.85,1012.74
4.62,0.42,0.78,-0.52,2.86,-7.06,1.50,-0.06,0.41,-0.85,1012.74
4.622,0.42,0.78,-0.52,2.86,-7.06,1.50,-0.27,0.12,-0.81,1012.74
4.622,0.42,0.78,-0.52,0.96,-0.46,-1.61,-0.27,0.12,-0.81,1012.74
4.657,0.42,0.78,-0.52,0.96,-0.46,-1.61,-0.27,0.12,-0.81,1012.74
4.661,0.42,0.78,-0.52,0.96,-0.46,-1.61,-0.46,-0.17,-0.78,1012.74
4.663,0.42,0.78,-0.52,1.22,-0.63,-1.71,-0.46,-0.17,-0.78,1012.74
4.686,0.40,0.73,-0.33,1.22,-0.63,-1.71,-0.46,-0.17,-0.78,1012.74
4.699,0.40,0.73,-0.33,1.22,-0.63,-1.71,-0.29,0.20,-0.99,1012.74
4.699,0.40,0.73,-0.33,3.25,1.14,-0.35,-0.29,0.20,-0.99,1012.74
4.732,0.40,0.73,-0.33,3.25,1.14,-0.35,-0.29,0.20,-0.99,1012.73
4.74,0.30,0.90,-0.33,3.25,1.14,-0.35,-0.29,0.20,-0.99,1012.73
4.742,0.30,0.90,-0.33,3.25,1.14,-0.35,-0.24,0.31,-1.00,1012.73
4.745,0.30,0.90,-0.33,0.32,-1.10,0.04,-0.24,0.31,-1.00,1012.73
4.778,0.30,0.90,-0.33,0.32,-1.10,0.04,-0.23,0.21,-0.83,1012.73
4.781,0.30,0.90,-0.33,0.57,-1.20,-0.06,-0.23,0.21,-0.83,1012.73
4.781,0.30,0.90,-0.33,0.57,-1.20,-0.06,-0.23,0.21,-0.83,1012.73
4.799,0.08,0.88,-0.36,0.57,-1.20,-0.06,-0.23,0.21,-0.83,1012.73
4.818,0.08,0.88,-0.36,0.57,-1.20,-0.06,-0.26,-0.01,-0.52,1012.73
4.819,0.08,0.88,-0.36,-0.98,-0.47,-0.14,-0.26,-0.01,-0.52,1012.73
4.837,0.08,0.88,-0.36,-0.98,-0.47,-0.14,-0.26,-0.01,-0.52,1012.73
4.858,0.07,0.89,-0.26,-0.98,-0.47,-0.14,-0.26,-0.01,-0.52,1012.73
4.862,0.07,0.89,-0.26,-0.98,-0.47,-0.14,-0.15,-0.01,-0.18,1012.73
4.864,0.07,0.89,-0.26,-1.80,-0.05,0.10,-0.15,-0.01,-0.18,1012.73
4.904,0.07,0.89,-0.26,-1.80,-0.05,0.10,0.00,-0.04,0.18,1012.73
4.907,0.07,0.89,-0.26,-1.83,-0.04,0.10,0.00,-0.04,0.18,1012.73
4.907,0.07,0.89,-0.26,-1.83,-0.04,0.10,0.00,-0.04,0.18,1012.72
4.948,0.19,0.91,-0.28,-1.83,-0.04,0.10,0.00,-0.04,0.18,1012.72
4.952,0.19,0.91,-0.28,-1.83,-0.04,0.10,0.09,-0.04,0.40,1012.72
4.952,0.19,0.91,-0.28,-1.78,0.07,0.75,0.09,-0.04,0.40,1012.72
4.957,0.19,0.91,-0.28,-1.78,0.07,0.75,0.09,-0.04,0.40,1012.72
4.976,0.24,0.93,-0.34,-1.78,0.07,0.75,0.09,-0.04,0.40,1012.72
4.977,0.24,0.93,-0.34,-1.78,0.07,0.75,0.16,0.16,0.47,1012.72
4.979,0.24,0.93,-0.34,-0.15,0.30,0.50,0.16,0.16,0.47,1012.72
5.016,0.24,0.93,-0.34,-0.15,0.30,0.50,0.10,0.21,0.53,1012.72
5.019,0.24,0.93,-0.34,-0.35,0.37,0.50,0.10,0.21,0.53,1012.72
5.021,0.24,0.93,-0.34,-0.35,0.37,0.50,0.10,0.21,0.53,1012.72
5.035,0.35,0.95,-0.48,-0.35,0.37,0.50,0.10,0.21,0.53,1012.72
5.056,0.35,0.95,-0.48,-0.54,0.53,-0.39,0.10,0.21,0.53,1012.72
5.06,0.35,0.95,-0.48,-0.54,0.53,-0.39,-0.15,0.24,0.42,1012.72
5.077,0.35,0.95,-0.48,-0.54,0.53,-0.39,-0.15,0.24,0.42,1012.72
5.106,0.59,1.11,-0.44,-0.54,0.53,-0.39,-0.15,0.24,0.42,1012.72
5.108,0.59,1.11,-0.44,-0.54,0.53,-0.39,-0.50,0.14,0.22,1012.72
5.108,0.59,1.11,-0.44,0.32,0.78,-2.24,-0.50,0.14,0.22,1012.72
5.142,0.59,1.11,-0.44,0.32,0.78,-2.24,-0.68,0.20,-0.21,1012.72
5.144,0.59,1.11,-0.44,0.37,0.66,-2.46,-0.68,0.20,-0.21,1012.72
5.145,0.59,1.11,-0.44,0.37,0.66,-2.46,-0.68,0.20,-0.21,1012.73
5.156,0.37,1.55,-0.18,0.37,0.66,-2.46,-0.68,0.20,-0.21,1012.73
5.173,0.37,1.55,-0.18,3.36,3.31,-1.02,-0.68,0.20,-0.21,1012.73
5.175,0.37,1.55,-0.18,3.36,3.31,-1.02,-0.60,0.12,-0.55,1012.73
5.205,0.37,1.55,-0.18,3.36,3.31,-1.02,-0.60,0.12,-0.55,1012.74
5.214,-0.12,1.18,-0.15,3.36,3.31,-1.02,-0.60,0.12,-0.55,1012.74
5.217,-0.12,1.18,-0.15,3.36,3.31,-1.02,-0.18,0.36,0.06,1012.74
5.22,-0.12,1.18,-0.15,-1.87,6.03,2.14,-0.18,0.36,0.06,1012.74
5.256,-0.12,1.18,-0.15,-1.87,6.03,2.14,-0.18,0.36,0.06,1012.74
5.292,-0.12,1.18,-0.15,-1.87,6.03,2.14,-0.08,-0.64,1.72,1012.74
5.293,-0.12,1.18,-0.15,-1.87,6.03,2.14,0.06,-1.61,2.74,1012.74
5.294,-0.12,1.18,-0.15,-2.38,6.14,2.16,0.06,-1.61,2.74,1012.74
5.295,-0.12,1.18,-0.15,-3.11,6.48,2.40,0.06,-1.61,2.74,1012.74
5.316,-0.12,1.18,-0.15,-3.11,6.48,2.40,0.06,-1.61,2.74,1012.73
5.389,-0.12,1.18,-0.15,-3.11,6.48,2.40,0.48,0.05,2.50,1012.73
5.392,-0.12,1.18,-0.15,-3.11,6.48,2.40,0.94,2.10,2.25,1012.73
5.394,-0.12,1.18,-0.15,-3.88,6.88,2.50,0.94,2.10,2.25,1012.73
5.396,-0.12,1.18,-0.15,-4.74,7.36,2.29,0.94,2.10,2.25,1012.73
5.398,-0.12,1.18,-0.15,-4.74,7.36,2.29,0.94,2.10,2.25,1012.72
5.427,0.48,0.90,-0.32,-4.74,7.36,2.29,0.94,2.10,2.25,1012.72
5.428,0.48,0.90,-0.32,-4.74,7.36,2.29,0.92,1.82,2.42,1012.72
5.429,0.48,0.90,-0.32,-2.15,1.69,-0.66,0.92,1.82,2.42,1012.72
5.437,0.48,0.90,-0.32,-2.15,1.69,-0.66,0.92,1.82,2.42,1012.72
5.45,0.50,0.66,-0.27,-2.15,1.69,-0.66,0.92,1.82,2.42,1012.72
5.451,0.50,0.66,-0.27,-2.15,1.69,-0.66,0.82,0.62,2.42,1012.72
5.451,0.50,0.66,-0.27,-2.62,0.18,-0.15,0.82,0.62,2.42,1012.72
5.49,0.43,0.63,-0.23,-2.62,0.18,-0.15,0.82,0.62,2.42,1012.72
5.493,0.43,0.63,-0.23,-2.62,0.18,-0.15,0.79,0.05,1.93,1012.72
5.495,0.43,0.63,-0.23,-3.66,0.47,0.43,0.79,0.05,1.93,1012.72
5.496,0.43,0.63,-0.23,-3.66,0.47,0.43,0.79,0.05,1.93,1012.72
5.529,0.29,0.48,-0.15,-3.66,0.47,0.43,0.79,0.05,1.93,1012.72
5.53,0.29,0.48,-0.15,-3.66,0.47,0.43,0.70,0.00,1.11,1012.72
5.531,0.29,0.48,-0.15,-5.16,-0.49,1.36,0.70,0.00,1.11,1012.72
5.555,0.29,0.48,-0.15,-5.16,-0.49,1.36,0.70,0.00,1.11,1012.72
5.571,0.16,0.22,-0.20,-5.16,-0.49,1.36,0.70,0.00,1.11,1012.72
5.576,0.16,0.22,-0.20,-5.16,-0.49,1.36,0.54,-0.12,0.18,1012.72
5.578,0.16,0.22,-0.20,-6.36,-2.88,0.96,0.54,-0.12,0.18,1012.72
5.621,0.05,0.11,-0.28,-6.36,-2.88,0.96,0.54,-0.12,0.18,1012.72
5.624,0.05,0.11,-0.28,-6.36,-2.88,0.96,0.33,-0.76,-0.90,1012.72
5.626,0.05,0.11,-0.28,-7.12,-4.11,0.46,0.33,-0.76,-0.90,1012.72
5.627,0.05,0.11,-0.28,-7.12,-4.11,0.46,0.33,-0.76,-0.90,1012.70
5.648,0.17,0.09,-0.28,-7.12,-4.11,0.46,0.33,-0.76,-0.90,1012.70
5.65,0.17,0.09,-0.28,-7.12,-4.11,0.46,0.03,-1.62,-1.87,1012.70
5.651,0.17,0.09,-0.28,-5.16,-4.76,0.90,0.03,-1.62,-1.87,1012.70
5.677,0.17,0.09,-0.28,-5.16,-4.76,0.90,0.03,-1.62,-1.87,1012.69
5.706,0.55,0.16,-0.20,-5.16,-4.76,0.90,0.03,-1.62,-1.87,1012.69
5.707,0.55,0.16,-0.20,-0.61,-4.72,2.02,0.03,-1.62,-1.87,1012.69
5.708,0.55,0.16,-0.20,-0.61,-4.72,2.02,-0.10,-1.61,-2.63,1012.69
5.742,0.80,0.26,-0.15,-0.61,-4.72,2.02,-0.10,-1.61,-2.63,1012.69
5.744,0.80,0.26,-0.15,-0.61,-4.72,2.02,0.07,-0.26,-3.09,1012.69
5.746,0.80,0.26,-0.15,2.66,-4.33,2.54,0.07,-0.26,-3.09,1012.69
5.747,0.80,0.26,-0.15,2.66,-4.33,2.54,0.07,-0.26,-3.09,1012.69
5.766,0.75,0.33,-0.27,2.66,-4.33,2.54,0.07,-0.26,-3.09,1012.69
5.768,0.75,0.33,-0.27,2.66,-4.33,2.54,0.22,0.70,-2.88,1012.69
5.769,0.75,0.33,-0.27,2.86,-4.11,1.31,0.22,0.70,-2.88,1012.69
5.795,0.75,0.33,-0.27,2.86,-4.11,1.31,0.22,0.70,-2.88,1012.68
5.812,0.88,0.25,-0.33,2.86,-4.11,1.31,0.22,0.70,-2.88,1012.68
5.813,0.88,0.25,-0.33,2.86,-4.11,1.31,0.10,0.02,-1.78,1012.68
5.814,0.88,0.25,-0.33,4.56,-5.05,0.74,0.10,0.02,-1.78,1012.68
5.845,0.98,0.02,-0.31,4.56,-5.05,0.74,0.10,0.02,-1.78,1012.68
5.849,0.98,0.02,-0.31,4.56,-5.05,0.74,0.24,0.12,-0.87,1012.68
5.851,0.98,0.02,-0.31,5.66,-7.28,1.02,0.24,0.12,-0.87,1012.68
5.857,0.98,0.02,-0.31,5.66,-7.28,1.02,0.24,0.12,-0.87,1012.67
5.901,1.45,0.46,-0.59,5.66,-7.28,1.02,0.24,0.12,-0.87,1012.67
5.904,1.45,0.46,-0.59,5.66,-7.28,1.02,0.76,1.00,-0.18,1012.67
5.906,1.45,0.46,-0.59,10.03,-2.82,-1.64,0.76,1.00,-0.18,1012.67
5.915,1.45,0.46,-0.59,10.03,-2.82,-1.64,0.76,1.00,-0.18,1012.67
5.946,0.60,2.77,-0.45,10.03,-2.82,-1.64,0.76,1.00,-0.18,1012.67
5.95,0.60,2.77,-0.45,10.03,-2.82,-1.64,0.27,1.61,0.21,1012.67
5.954,0.60,2.77,-0.45,1.35,19.58,-0.52,0.27,1.61,0.21,1012.67
5.965,-0.28,-0.40,-0.69,1.35,19.58,-0.52,0.27,1.61,0.21,1012.67
5.972,-0.28,-0.40,-0.69,1.35,19.58,-0.52,-0.13,-0.99,0.23,1012.67
5.975,-0.28,-0.40,-0.69,-7.05,-11.32,-2.69,-0.13,-0.99,0.23,1012.67
5.978,-0.28,-0.40,-0.69,-7.05,-11.32,-2.69,-0.13,-0.99,0.23,1012.67
6.007,1.63,1.08,-0.19,-7.05,-11.32,-2.69,-0.13,-0.99,0.23,1012.67
6.009,1.63,1.08,-0.19,-7.05,-11.32,-2.69,-0.26,-0.93,0.54,1012.67
6.009,1.63,1.08,-0.19,11.40,3.21,2.27,-0.26,-0.93,0.54,1012.67
6.034,1.63,1.08,-0.19,11.40,3.21,2.27,-0.26,-0.93,0.54,1012.68
6.042,0.32,0.84,-0.51,11.40,3.21,2.27,-0.26,-0.93,0.54,1012.68
6.042,0.32,0.84,-0.51,11.40,3.21,2.27,0.23,0.74,-0.66,1012.68
6.043,0.32,0.84,-0.51,-1.28,0.76,-0.89,0.23,0.74,-0.66,1012.68
6.082,0.48,0.74,-0.55,-1.28,0.76,-0.89,0.23,0.74,-0.66,1012.68
6.084,0.48,0.74,-0.55,-1.28,0.76,-0.89,0.00,-0.19,-0.50,1012.68
6.084,0.48,0.74,-0.55,0.41,-0.29,-1.21,0.00,-0.19,-0.50,1012.68
6.095,0.48,0.74,-0.55,0.41,-0.29,-1.21,0.00,-0.19,-0.50,1012.68
6.123,0.48,0.74,-0.55,2.65,0.59,-0.02,0.00,-0.19,-0.50,1012.68
6.124,0.69,0.85,-0.42,2.65,0.59,-0.02,0.00,-0.19,-0.50,1012.68
6.126,0.69,0.85,-0.42,2.65,0.59,-0.02,-0.17,-0.16,-0.59,1012.68
6.156,0.69,0.85,-0.42,2.65,0.59,-0.02,-0.17,-0.16,-0.59,1012.68
6.161,0.34,0.78,-0.50,2.65,0.59,-0.02,-0.17,-0.16,-0.59,1012.68
6.162,0.34,0.78,-0.50,2.65,0.59,-0.02,-0.14,0.37,-0.86,1012.68
6.162,0.34,0.78,-0.50,-0.55,-0.17,-0.83,-0.14,0.37,-0.86,1012.68
6.206,0.33,0.85,-0.45,-0.55,-0.17,-0.83,-0.14,0.37,-0.86,1012.68
6.207,0.33,0.85,-0.45,-0.55,-0.17,-0.83,-0.31,0.06,-0.79,1012.68
6.208,0.33,0.85,-0.45,-0.41,0.31,-0.43,-0.31,0.06,-0.79,1012.68
6.215,0.33,0.85,-0.45,-0.41,0.31,-0.43,-0.31,0.06,-0.79,1012.67
6.241,0.34,0.79,-0.38,-0.41,0.31,-0.43,-0.31,0.06,-0.79,1012.67
6.242,0.34,0.79,-0.38,-0.41,0.31,-0.43,-0.34,0.10,-0.70,1012.67
6.243,0.34,0.79,-0.38,-0.13,-0.44,0.13,-0.34,0.10,-0.70,1012.67
6.276,0.34,0.79,-0.38,-0.13,-0.44,0.13,-0.34,0.10,-0.70,1012.67
6.282,0.12,0.84,-0.37,-0.13,-0.44,0.13,-0.34,0.10,-0.70,1012.67
6.286,0.12,0.84,-0.37,-0.13,-0.44,0.13,-0.28,0.25,-0.60,1012.67
6.289,0.12,0.84,-0.37,-2.03,-0.05,0.08,-0.28,0.25,-0.60,1012.67
6.325,0.20,0.82,-0.29,-2.03,-0.05,0.08,-0.28,0.25,-0.60,1012.67
6.328,0.20,0.82,-0.29,-2.03,-0.05,0.08,-0.20,0.02,-0.27,1012.67
6.329,0.20,0.82,-0.29,-1.20,-0.27,0.76,-0.20,0.02,-0.27,1012.67
6.338,0.20,0.82,-0.29,-1.20,-0.27,0.76,-0.20,0.02,-0.27,1012.67
6.359,0.18,0.88,-0.29,-1.20,-0.27,0.76,-0.20,0.02,-0.27,1012.67
6.36,0.18,0.88,-0.29,-1.20,-0.27,0.76,-0.04,0.16,0.02,1012.67
6.361,0.18,0.88,-0.29,-1.40,0.26,0.77,-0.04,0.16,0.02,1012.67
6.404,0.18,0.88,-0.29,-1.40,0.26,0.77,-0.04,0.16,0.02,1012.68
6.407,0.23,0.87,-0.35,-1.40,0.26,0.77,-0.04,0.16,0.02,1012.68
6.407,0.23,0.87,-0.35,-1.40,0.26,0.77,0.10,0.21,0.33,1012.68
6.408,0.23,0.87,-0.35,-1.05,0.20,0.14,0.10,0.21,0.33,1012.68
6.439,0.38,0.85,-0.31,-1.05,0.20,0.14,0.10,0.21,0.33,1012.68
6.44,0.38,0.85,-0.31,-1.05,0.20,0.14,0.13,0.18,0.53,1012.68
6.441,0.38,0.85,-0.31,0.28,0.14,0.55,0.13,0.18,0.53,1012.68
6.455,0.38,0.85,-0.31,0.28,0.14,0.55,0.13,0.18,0.53,1012.69
6.479,0.38,0.87,-0.42,0.28,0.14,0.55,0.13,0.18,0.53,1012.69
6.481,0.38,0.87,-0.42,0.28,0.14,0.55,0.18,0.26,0.56,1012.69
6.482,0.38,0.87,-0.42,0.07,0.44,-0.52,0.18,0.26,0.56,1012.69
6.514,0.38,0.87,-0.42,0.07,0.44,-0.52,0.18,0.26,0.56,1012.69
6.516,0.50,0.91,-0.52,0.07,0.44,-0.52,0.18,0.26,0.56,1012.69
6.517,0.50,0.91,-0.52,0.07,0.44,-0.52,0.06,0.15,0.56,1012.69
6.519,0.50,0.91,-0.52,0.96,0.90,-1.49,0.06,0.15,0.56,1012.69
6.558,0.70,1.05,-0.42,0.96,0.90,-1.49,0.06,0.15,0.56,1012.69
6.561,0.70,1.05,-0.42,0.96,0.90,-1.49,-0.07,0.22,0.36,1012.69
6.562,0.70,1.05,-0.42,2.73,2.26,-0.57,-0.07,0.22,0.36,1012.69
6.575,0.70,1.05,-0.42,2.73,2.26,-0.57,-0.07,0.22,0.36,1012.69
6.606,0.71,1.32,-0.23,2.73,2.26,-0.57,-0.07,0.22,0.36,1012.69
6.608,0.71,1.32,-0.23,2.73,2.26,-0.57,-0.26,0.43,-0.05,1012.69
6.609,0.71,1.32,-0.23,2.78,4.79,1.19,-0.26,0.43,-0.05,1012.69
6.653,0.49,1.64,-0.41,2.78,4.79,1.19,-0.26,0.43,-0.05,1012.69
6.654,0.49,1.64,-0.41,2.78,4.79,1.19,-0.68,-0.10,-0.13,1012.69
6.655,0.49,1.64,-0.41,2.78,4.79,1.19,-0.68,-0.10,-0.13,1012.68
6.656,0.49,1.64,-0.41,0.64,7.64,-0.83,-0.68,-0.10,-0.13,1012.68
6.677,0.27,1.33,-0.08,0.64,7.64,-0.83,-0.68,-0.10,-0.13,1012.68
6.68,0.27,1.33,-0.08,0.64,7.64,-0.83,-0.33,0.74,-0.36,1012.68
6.681,0.27,1.33,-0.08,-1.44,4.49,2.13,-0.33,0.74,-0.36,1012.68
6.697,0.27,1.33,-0.08,-1.44,4.49,2.13,-0.33,0.74,-0.36,1012.68
6.717,-0.09,0.94,-0.50,-1.44,4.49,2.13,-0.33,0.74,-0.36,1012.68
6.718,-0.09,0.94,-0.50,-1.44,4.49,2.13,0.31,1.79,0.20,1012.68
6.719,-0.09,0.94,-0.50,-5.17,0.67,-2.07,0.31,1.79,0.20,1012.68
6.753,0.66,1.09,-0.56,-5.17,0.67,-2.07,0.31,1.79,0.20,1012.68
6.755,0.66,1.09,-0.56,-5.17,0.67,-2.07,0.68,0.25,1.94,1012.68
6.756,0.66,1.09,-0.56,1.53,2.57,-2.42,0.68,0.25,1.94,1012.68
6.757,0.66,1.09,-0.56,1.53,2.57,-2.42,0.68,0.25,1.94,1012.68
6.807,1.15,1.06,-0.25,1.53,2.57,-2.42,0.68,0.25,1.94,1012.68
6.809,1.15,1.06,-0.25,1.53,2.57,-2.42,1.22,0.32,2.51,1012.68
6.81,1.15,1.06,-0.25,5.38,2.91,0.91,1.22,0.32,2.51,1012.68
6.813,1.15,1.06,-0.25,5.38,2.91,0.91,1.22,0.32,2.51,1012.67
6.843,0.89,0.88,-0.28,5.38,2.91,0.91,1.22,0.32,2.51,1012.67
6.846,0.89,0.88,-0.28,5.38,2.91,0.91,1.78,2.97,1.98,1012.67
6.847,0.89,0.88,-0.28,1.86,1.81,0.28,1.78,2.97,1.98,1012.67
6.877,0.62,0.74,-0.27,1.86,1.81,0.28,1.78,2.97,1.98,1012.67
6.88,0.62,0.74,-0.27,1.86,1.81,0.28,1.99,4.01,1.67,1012.67
6.882,0.62,0.74,-0.27,1.86,1.81,0.28,1.99,4.01,1.67,1012.66
6.883,0.62,0.74,-0.27,-1.56,1.15,-0.24,1.99,4.01,1.67,1012.66
6.923,0.52,0.52,-0.18,-1.56,1.15,-0.24,1.99,4.01,1.67,1012.66
6.926,0.52,0.52,-0.18,-1.56,1.15,-0.24,1.82,2.77,1.72,1012.66
6.927,0.52,0.52,-0.18,-3.18,-0.29,0.19,1.82,2.77,1.72,1012.66
6.934,0.52,0.52,-0.18,-3.18,-0.29,0.19,1.82,2.77,1.72,1012.66
6.966,0.56,0.45,-0.08,-3.18,-0.29,0.19,1.82,2.77,1.72,1012.66
6.968,0.56,0.45,-0.08,-3.18,-0.29,0.19,1.82,1.32,1.59,1012.66
6.968,0.56,0.45,-0.08,-3.16,-0.28,1.06,1.82,1.32,1.59,1012.66
6.994,0.57,0.57,-0.06,-3.16,-0.28,1.06,1.82,1.32,1.59,1012.66
6.996,0.57,0.57,-0.06,-3.16,-0.28,1.06,2.10,0.83,1.04,1012.66
6.997,0.57,0.57,-0.06,-3.16,-0.28,1.06,2.10,0.83,1.04,1012.67
6.998,0.57,0.57,-0.06,-3.23,1.35,1.30,2.10,0.83,1.04,1012.67
7.031,0.55,0.57,0.01,-3.23,1.35,1.30,2.10,0.83,1.04,1012.67
7.032,0.55,0.57,0.01,-3.23,1.35,1.30,2.26,0.64,0.38,1012.67
7.033,0.55,0.57,0.01,-3.50,1.59,2.09,2.26,0.64,0.38,1012.67
7.054,0.55,0.57,0.01,-3.50,1.59,2.09,2.26,0.64,0.38,1012.65
7.073,0.51,0.46,0.03,-3.50,1.59,2.09,2.26,0.64,0.38,1012.65
7.076,0.51,0.46,0.03,-3.50,1.59,2.09,2.28,0.62,-0.40,1012.65
7.079,0.51,0.46,0.03,-3.76,0.55,2.45,2.28,0.62,-0.40,1012.65
7.122,0.34,0.43,0.03,-3.76,0.55,2.45,2.28,0.62,-0.40,1012.65
7.126,0.34,0.43,0.03,-3.76,0.55,2.45,2.17,0.56,-1.41,1012.65
7.126,0.34,0.43,0.03,-5.18,0.03,2.49,2.17,0.56,-1.41,1012.65
7.127,0.34,0.43,0.03,-5.18,0.03,2.49,2.17,0.56,-1.41,1012.63
7.154,0.29,0.39,0.02,-5.18,0.03,2.49,2.17,0.56,-1.41,1012.63
7.156,0.29,0.39,0.02,-5.18,0.03,2.49,1.89,0.05,-2.30,1012.63
7.158,0.29,0.39,0.02,-5.16,-0.95,2.68,1.89,0.05,-2.30,1012.63
7.174,0.29,0.39,0.02,-5.16,-0.95,2.68,1.89,0.05,-2.30,1012.62
7.191,0.39,0.50,0.04,-5.16,-0.95,2.68,1.89,0.05,-2.30,1012.62
7.195,0.39,0.50,0.04,-5.16,-0.95,2.68,1.52,-0.45,-3.10,1012.62
7.197,0.39,0.50,0.04,-3.51,-0.70,3.30,1.52,-0.45,-3.10,1012.62
7.239,0.52,0.51,-0.01,-3.51,-0.70,3.30,1.52,-0.45,-3.10,1012.62
7.242,0.52,0.51,-0.01,-3.51,-0.70,3.30,1.16,-0.60,-3.60,1012.62
7.244,0.52,0.51,-0.01,-1.22,-1.34,3.18,1.16,-0.60,-3.60,1012.62
7.246,0.52,0.51,-0.01,-1.22,-1.34,3.18,1.16,-0.60,-3.60,1012.62
7.268,0.64,0.45,-0.07,-1.22,-1.34,3.18,1.16,-0.60,-3.60,1012.62
7.271,0.64,0.45,-0.07,-1.22,-1.34,3.18,1.07,0.08,-3.93,1012.62
7.273,0.64,0.45,-0.07,1.00,-2.69,2.80,1.07,0.08,-3.93,1012.62
7.293,0.64,0.45,-0.07,1.00,-2.69,2.80,1.07,0.08,-3.93,1012.60
7.317,0.59,0.48,-0.15,1.00,-2.69,2.80,1.07,0.08,-3.93,1012.60
7.32,0.59,0.48,-0.15,1.00,-2.69,2.80,1.24,1.10,-3.98,1012.60
7.321,0.59,0.48,-0.15,1.42,-2.87,2.18,1.24,1.10,-3.98,1012.60
7.346,0.58,0.53,-0.14,1.42,-2.87,2.18,1.24,1.10,-3.98,1012.60
7.35,0.58,0.53,-0.14,1.42,-2.87,2.18,1.26,1.13,-3.38,1012.60
7.352,0.58,0.53,-0.14,2.23,-2.74,2.39,1.26,1.13,-3.38,1012.60
7.354,0.58,0.53,-0.14,2.23,-2.74,2.39,1.26,1.13,-3.38,1012.60
7.402,0.77,0.63,-0.08,2.23,-2.74,2.39,1.26,1.13,-3.38,1012.60
7.404,0.77,0.63,-0.08,2.23,-2.74,2.39,0.73,0.52,-2.34,1012.60
7.406,0.77,0.63,-0.08,4.62,-1.85,3.07,0.73,0.52,-2.34,1012.60
7.412,0.77,0.63,-0.08,4.62,-1.85,3.07,0.73,0.52,-2.34,1012.61
7.426,0.96,0.45,-0.09,4.62,-1.85,3.07,0.73,0.52,-2.34,1012.61
7.427,0.96,0.45,-0.09,4.62,-1.85,3.07,0.00,0.39,-1.25,1012.61
7.428,0.96,0.45,-0.09,6.70,-3.73,2.97,0.00,0.39,-1.25,1012.61
7.466,0.66,0.18,-0.40,6.70,-3.73,2.97,0.00,0.39,-1.25,1012.61
7.469,0.66,0.18,-0.40,6.70,-3.73,2.97,0.03,0.84,-0.45,1012.61
7.471,0.66,0.18,-0.40,3.74,-6.29,-0.14,0.03,0.84,-0.45,1012.61
7.473,0.66,0.18,-0.40,3.74,-6.29,-0.14,0.03,0.84,-0.45,1012.62
7.507,0.28,3.11,-0.98,3.74,-6.29,-0.14,0.03,0.84,-0.45,1012.62
7.508,0.28,3.11,-0.98,3.74,-6.29,-0.14,0.31,-0.59,0.57,1012.62
7.509,0.28,3.11,-0.98,-0.07,22.11,-5.61,0.31,-0.59,0.57,1012.62
7.541,0.28,3.11,-0.98,-0.07,22.11,-5.61,0.31,-0.59,0.57,1012.64
7.545,0.27,0.29,-0.10,-0.07,22.11,-5.61,0.31,-0.59,0.57,1012.64
7.547,0.27,0.29,-0.10,-0.07,22.11,-5.61,-0.35,-1.66,1.00,1012.64
7.548,0.27,0.29,-0.10,-0.26,-5.36,2.99,-0.35,-1.66,1.00,1012.64
7.584,0.27,0.29,-0.10,7.01,-6.56,0.03,-0.35,-1.66,1.00,1012.64
7.587,1.04,0.14,-0.41,7.01,-6.56,0.03,-0.35,-1.66,1.00,1012.64
7.588,1.04,0.14,-0.41,7.01,-6.56,0.03,0.22,-0.03,0.74,1012.64
7.599,1.04,0.14,-0.41,7.01,-6.56,0.03,0.22,-0.03,0.74,1012.63
7.622,0.42,1.86,-0.64,7.01,-6.56,0.03,0.22,-0.03,0.74,1012.63
7.624,0.42,1.86,-0.64,7.01,-6.56,0.03,0.13,0.79,-0.21,1012.63
7.624,0.42,1.86,-0.64,0.82,10.09,-2.21,0.13,0.79,-0.21,1012.63
7.651,0.42,1.86,-0.64,0.82,10.09,-2.21,0.13,0.79,-0.21,1012.63
7.662,0.23,0.32,-0.35,0.82,10.09,-2.21,0.13,0.79,-0.21,1012.63
7.663,0.23,0.32,-0.35,0.82,10.09,-2.21,-0.07,-0.34,-0.14,1012.63
7.663,0.23,0.32,-0.35,-0.89,-4.97,0.65,-0.07,-0.34,-0.14,1012.63
7.701,0.67,1.15,-0.42,-0.89,-4.97,0.65,-0.07,-0.34,-0.14,1012.63
7.701,0.67,1.15,-0.42,-0.89,-4.97,0.65,-0.09,0.02,-0.31,1012.63
7.711,0.67,1.15,-0.42,3.41,3.14,-0.12,-0.09,0.02,-0.31,1012.63
7.711,0.67,1.15,-0.42,3.41,3.14,-0.12,-0.09,0.02,-0.31,1012.61
7.74,0.15,0.74,-0.44,3.41,3.14,-0.12,-0.09,0.02,-0.31,1012.61
7.741,0.15,0.74,-0.44,3.41,3.14,-0.12,-0.03,0.30,-0.73,1012.61
7.742,0.15,0.74,-0.44,-1.43,-0.97,-0.35,-0.03,0.30,-0.73,1012.61
7.771,0.15,0.74,-0.44,-1.43,-0.97,-0.35,-0.03,0.30,-0.73,1012.61
7.781,0.32,0.92,-0.41,-1.43,-0.97,-0.35,-0.03,0.30,-0.73,1012.61
7.781,0.32,0.92,-0.41,-1.43,-0.97,-0.35,-0.09,0.04,-0.61,1012.61
7.782,0.32,0.92,-0.41,0.40,0.70,-0.04,-0.09,0.04,-0.61,1012.61
7.821,0.23,0.85,-0.45,0.40,0.70,-0.04,-0.09,0.04,-0.61,1012.61
7.822,0.23,0.85,-0.45,0.40,0.70,-0.04,-0.07,0.29,-0.74,1012.61
7.823,0.23,0.85,-0.45,-0.29,-0.07,-0.47,-0.07,0.29,-0.74,1012.61
7.832,0.23,0.85,-0.45,-0.29,-0.07,-0.47,-0.07,0.29,-0.74,1012.61
7.861,-0.01,0.88,-0.50,-0.29,-0.07,-0.47,-0.07,0.29,-0.74,1012.61
7.864,-0.01,0.88,-0.50,-0.29,-0.07,-0.47,-0.13,0.37,-0.69,1012.61
7.865,-0.01,0.88,-0.50,-2.45,0.10,-1.08,-0.13,0.37,-0.69,1012.61
7.912,-0.01,0.88,-0.50,-2.45,0.10,-1.08,-0.13,0.37,-0.69,1012.62
7.915,0.04,0.90,-0.39,-2.45,0.10,-1.08,-0.13,0.37,-0.69,1012.62
7.916,0.04,0.90,-0.39,-2.45,0.10,-1.08,-0.28,0.03,-0.46,1012.62
7.918,0.04,0.90,-0.39,-1.75,0.20,-0.04,-0.28,0.03,-0.46,1012.62
7.938,0.11,0.92,-0.31,-1.75,0.20,-0.04,-0.28,0.03,-0.46,1012.62
7.94,0.11,0.92,-0.31,-1.75,0.20,-0.04,-0.26,-0.00,-0.27,1012.62
7.941,0.11,0.92,-0.31,-1.00,0.35,0.67,-0.26,-0.00,-0.27,1012.62
7.951,0.11,0.92,-0.31,-1.00,0.35,0.67,-0.26,-0.00,-0.27,1012.63
7.978,0.11,0.91,-0.33,-1.00,0.35,0.67,-0.26,-0.00,-0.27,1012.63
7.98,0.11,0.91,-0.33,-1.00,0.35,0.67,-0.14,0.11,-0.12,1012.63
7.981,0.11,0.91,-0.33,-0.93,0.19,0.36,-0.14,0.11,-0.12,1012.63
8.016,0.11,0.91,-0.33,-0.93,0.19,0.36,-0.14,0.11,-0.12,1012.63
8.023,0.13,0.92,-0.31,-0.93,0.19,0.36,-0.14,0.11,-0.12,1012.63
8.025,0.13,0.92,-0.31,-0.93,0.19,0.36,0.00,0.42,-0.00,1012.63
8.026,0.13,0.92,-0.31,-0.72,0.35,0.54,0.00,0.42,-0.00,1012.63
8.059,0.03,0.91,-0.34,-0.72,0.35,0.54,0.00,0.42,-0.00,1012.63
8.063,0.03,0.91,-0.34,-0.72,0.35,0.54,0.10,0.45,0.16,1012.63
8.066,0.03,0.91,-0.34,-1.84,0.28,0.22,0.10,0.45,0.16,1012.63
8.075,0.03,0.91,-0.34,-1.84,0.28,0.22,0.10,0.45,0.16,1012.63
8.098,0.24,0.92,-0.34,-1.84,0.28,0.22,0.10,0.45,0.16,1012.63
8.101,0.24,0.92,-0.34,-1.84,0.28,0.22,0.16,0.31,0.34,1012.63
8.103,0.24,0.92,-0.34,0.06,0.41,0.28,0.16,0.31,0.34,1012.63
8.137,0.24,0.92,-0.34,0.06,0.41,0.28,0.16,0.31,0.34,1012.63
8.139,0.19,0.92,-0.33,0.06,0.41,0.28,0.16,0.31,0.34,1012.63
8.139,0.19,0.92,-0.33,0.06,0.41,0.28,0.28,0.56,0.35,1012.63
8.14,0.19,0.92,-0.33,-0.63,0.47,0.36,0.28,0.56,0.35,1012.63
8.176,0.11,0.92,-0.33,-0.63,0.47,0.36,0.28,0.56,0.35,1012.63
8.179,0.11,0.92,-0.33,-0.63,0.47,0.36,0.36,0.48,0.48,1012.63
8.181,0.11,0.92,-0.33,-1.58,0.55,0.41,0.36,0.48,0.48,1012.63
8.192,0.11,0.92,-0.33,-1.58,0.55,0.41,0.36,0.48,0.48,1012.63
8.217,0.23,0.86,-0.35,-1.58,0.55,0.41,0.36,0.48,0.48,1012.63
8.219,0.23,0.86,-0.35,-1.58,0.55,0.41,0.43,0.42,0.67,1012.63
8.221,0.23,0.86,-0.35,-0.72,0.04,0.35,0.43,0.42,0.67,1012.63
8.253,0.23,0.86,-0.35,-0.72,0.04,0.35,0.43,0.42,0.67,1012.63
8.26,0.30,0.87,-0.39,-0.72,0.04,0.35,0.43,0.42,0.67,1012.63
8.26,0.30,0.87,-0.39,-0.72,0.04,0.35,0.57,0.56,0.72,1012.63
8.261,0.30,0.87,-0.39,-0.34,0.33,0.05,0.57,0.56,0.72,1012.63
8.295,0.34,0.91,-0.50,-0.34,0.33,0.05,0.57,0.56,0.72,1012.63
8.299,0.34,0.91,-0.50,-0.34,0.33,0.05,0.53,0.43,0.72,1012.63
8.3,0.34,0.91,-0.50,-0.28,0.89,-0.87,0.53,0.43,0.72,1012.63
8.318,0.34,0.91,-0.50,-0.28,0.89,-0.87,0.53,0.43,0.72,1012.63
8.335,0.44,0.94,-0.56,-0.28,0.89,-0.87,0.53,0.43,0.72,1012.63
8.336,0.44,0.94,-0.56,-0.28,0.89,-0.87,0.40,0.41,0.67,1012.63
8.337,0.44,0.94,-0.56,0.51,1.34,-1.40,0.40,0.41,0.67,1012.63
8.374,0.44,0.94,-0.56,0.68,2.64,-3.58,0.40,0.41,0.67,1012.63
8.378,0.44,0.94,-0.56,0.68,2.64,-3.58,0.40,0.41,0.67,1012.62
8.38,0.49,1.06,-0.79,0.68,2.64,-3.58,0.40,0.41,0.67,1012.62
8.381,0.49,1.06,-0.79,0.68,2.64,-3.58,0.30,0.48,0.50,1012.62
8.425,0.59,1.52,-0.35,0.68,2.64,-3.58,0.30,0.48,0.50,1012.62
8.427,0.59,1.52,-0.35,0.68,2.64,-3.58,0.37,1.22,0.08,1012.62
8.428,0.59,1.52,-0.35,1.47,7.06,0.66,0.37,1.22,0.08,1012.62
8.431,0.59,1.52,-0.35,1.47,7.06,0.66,0.37,1.22,0.08,1012.63
8.46,0.41,1.46,-0.01,1.47,7.06,0.66,0.37,1.22,0.08,1012.63
8.461,0.41,1.46,-0.01,1.47,7.06,0.66,0.41,1.72,-0.23,1012.63
8.462,0.41,1.46,-0.01,-0.50,6.43,3.79,0.41,1.72,-0.23,1012.63
8.492,0.41,1.46,-0.01,-0.50,6.43,3.79,0.41,1.72,-0.23,1012.63
8.497,0.41,1.46,-0.01,-3.04,3.19,1.09,0.41,1.72,-0.23,1012.63
8.499,0.17,1.14,-0.26,-3.04,3.19,1.09,0.41,1.72,-0.23,1012.63
8.501,0.17,1.14,-0.26,-3.04,3.19,1.09,0.41,1.59,-0.11,1012.63
8.546,0.37,0.96,-0.51,-3.04,3.19,1.09,0.41,1.59,-0.11,1012.63
8.549,0.37,0.96,-0.51,-3.04,3.19,1.09,0.68,1.84,0.26,1012.63
8.551,0.37,0.96,-0.51,-1.42,1.59,-1.42,0.68,1.84,0.26,1012.63
8.554,0.37,0.96,-0.51,-1.42,1.59,-1.42,0.68,1.84,0.26,1012.63
8.574,0.83,0.97,-0.42,-1.42,1.59,-1.42,0.68,1.84,0.26,1012.63
8.576,0.83,0.97,-0.42,-1.42,1.59,-1.42,1.36,2.16,0.84,1012.63
8.577,0.83,0.97,-0.42,2.58,2.03,-0.57,1.36,2.16,0.84,1012.63
8.621,0.71,0.99,-0.49,2.58,2.03,-0.57,1.36,2.16,0.84,1012.63
8.624,0.71,0.99,-0.49,2.58,2.03,-0.57,2.03,2.66,0.69,1012.63
8.625,0.71,0.99,-0.49,2.58,2.03,-0.57,2.03,2.66,0.69,1012.61
8.626,0.71,0.99,-0.49,0.75,2.58,-1.31,2.03,2.66,0.69,1012.61
8.657,0.67,0.86,-0.37,0.75,2.58,-1.31,2.03,2.66,0.69,1012.61
8.66,0.67,0.86,-0.37,0.75,2.58,-1.31,2.04,2.84,0.68,1012.61
8.661,0.67,0.86,-0.37,-0.16,1.80,-0.24,2.04,2.84,0.68,1012.61
8.677,0.67,0.86,-0.37,-0.16,1.80,-0.24,2.04,2.84,0.68,1012.59
8.693,0.88,0.67,-0.12,-0.16,1.80,-0.24,2.04,2.84,0.68,1012.59
8.697,0.88,0.67,-0.12,-0.16,1.80,-0.24,2.01,2.99,0.72,1012.59
8.699,0.88,0.67,-0.12,1.29,0.31,1.81,2.01,2.99,0.72,1012.59
8.737,0.67,0.66,-0.02,1.29,0.31,1.81,2.01,2.99,0.72,1012.59
8.739,0.67,0.66,-0.02,1.29,0.31,1.81,2.11,3.36,0.44,1012.59
8.739,0.67,0.66,-0.02,-1.19,0.55,2.24,2.11,3.36,0.44,1012.59
8.74,0.67,0.66,-0.02,-1.19,0.55,2.24,2.11,3.36,0.44,1012.59
8.769,0.66,0.70,-0.04,-1.19,0.55,2.24,2.11,3.36,0.44,1012.59
8.771,0.66,0.70,-0.04,-1.19,0.55,2.24,2.04,2.75,0.63,1012.59
8.773,0.66,0.70,-0.04,-1.64,1.38,1.58,2.04,2.75,0.63,1012.59
8.789,0.66,0.70,-0.04,-1.64,1.38,1.58,2.04,2.75,0.63,1012.59
8.808,0.58,0.66,-0.14,-1.64,1.38,1.58,2.04,2.75,0.63,1012.59
8.809,0.58,0.66,-0.14,-1.64,1.38,1.58,1.84,1.39,0.60,1012.59
8.809,0.58,0.66,-0.14,-2.65,1.30,0.55,1.84,1.39,0.60,1012.59
8.848,0.61,0.50,-0.07,-2.65,1.30,0.55,1.84,1.39,0.60,1012.59
8.849,0.61,0.50,-0.07,-2.65,1.30,0.55,1.56,0.38,0.18,1012.59
8.85,0.61,0.50,-0.07,-2.34,-0.09,1.39,1.56,0.38,0.18,1012.59
8.851,0.61,0.50,-0.07,-2.34,-0.09,1.39,1.56,0.38,0.18,1012.59
8.888,0.65,0.38,-0.06,-2.34,-0.09,1.39,1.56,0.38,0.18,1012.59
8.889,0.65,0.38,-0.06,-2.34,-0.09,1.39,1.27,0.39,-0.60,1012.59
8.89,0.65,0.38,-0.06,-1.90,-1.37,1.64,1.27,0.39,-0.60,1012.59
8.91,0.65,0.38,-0.06,-1.90,-1.37,1.64,1.27,0.39,-0.60,1012.58
8.943,0.41,0.27,-0.11,-1.90,-1.37,1.64,1.27,0.39,-0.60,1012.58
8.946,0.41,0.27,-0.11,-1.90,-1.37,1.64,0.91,0.48,-1.65,1012.58
8.947,0.41,0.27,-0.11,-3.84,-2.79,1.10,0.91,0.48,-1.65,1012.58
8.978,0.36,0.29,-0.12,-3.84,-2.79,1.10,0.91,0.48,-1.65,1012.58
8.979,0.36,0.29,-0.12,-3.84,-2.79,1.10,0.47,0.11,-2.42,1012.58
8.98,0.36,0.29,-0.12,-3.84,-2.79,1.10,0.47,0.11,-2.42,1012.57
8.981,0.36,0.29,-0.12,-3.68,-3.25,1.13,0.47,0.11,-2.42,1012.57
9.027,0.45,0.35,-0.08,-3.68,-3.25,1.13,0.47,0.11,-2.42,1012.57
9.028,0.45,0.35,-0.08,-2.04,-3.43,1.54,0.47,0.11,-2.42,1012.57
9.029,0.45,0.35,-0.08,-2.04,-3.43,1.54,0.07,-0.22,-2.97,1012.57
9.03,0.45,0.35,-0.08,-2.04,-3.43,1.54,0.07,-0.22,-2.97,1012.57
9.058,0.45,0.35,-0.08,-0.16,-3.57,1.00,0.07,-0.22,-2.97,1012.57
9.06,0.54,0.41,-0.14,-0.16,-3.57,1.00,0.07,-0.22,-2.97,1012.57
9.06,0.54,0.41,-0.14,-0.16,-3.57,1.00,-0.23,-0.38,-3.19,1012.57
9.085,0.68,0.40,-0.11,-0.16,-3.57,1.00,-0.23,-0.38,-3.19,1012.57
9.087,0.68,0.40,-0.11,-0.16,-3.57,1.00,-0.38,0.02,-3.20,1012.57
9.088,0.68,0.40,-0.11,2.17,-4.21,1.12,-0.38,0.02,-3.20,1012.57
9.088,0.68,0.40,-0.11,2.17,-4.21,1.12,-0.38,0.02,-3.20,1012.56
9.126,0.44,0.48,-0.23,2.17,-4.21,1.12,-0.38,0.02,-3.20,1012.56
9.128,0.44,0.48,-0.23,2.17,-4.21,1.12,-0.40,0.37,-2.98,1012.56
9.129,0.44,0.48,-0.23,0.73,-3.91,-0.25,-0.40,0.37,-2.98,1012.56
9.149,0.44,0.48,-0.23,0.73,-3.91,-0.25,-0.40,0.37,-2.98,1012.57
9.164,0.50,0.59,-0.24,0.73,-3.91,-0.25,-0.40,0.37,-2.98,1012.57
9.166,0.50,0.59,-0.24,0.73,-3.91,-0.25,-0.68,-0.70,-2.19,1012.57
9.167,0.50,0.59,-0.24,2.10,-3.13,-0.54,-0.68,-0.70,-2.19,1012.57
9.205,0.65,0.58,-0.10,2.10,-3.13,-0.54,-0.68,-0.70,-2.19,1012.57
9.208,0.65,0.58,-0.10,2.10,-3.13,-0.54,-0.83,-0.72,-1.45,1012.57
9.21,0.65,0.58,-0.10,4.03,-3.30,0.60,-0.83,-0.72,-1.45,1012.57
9.23,0.65,0.58,-0.10,4.03,-3.30,0.60,-0.83,-0.72,-1.45,1012.57
9.265,0.67,0.48,-0.77,4.03,-3.30,0.60,-0.83,-0.72,-1.45,1012.57
9.267,0.67,0.48,-0.77,4.03,-3.30,0.60,-0.51,-0.82,-0.72,1012.57
9.268,0.67,0.48,-0.77,4.51,-4.34,-5.97,-0.51,-0.82,-0.72,1012.57
9.269,0.67,0.48,-0.77,4.51,-4.34,-5.97,-0.51,-0.82,-0.72,1012.57
9.283,1.26,2.92,0.11,4.51,-4.34,-5.97,-0.51,-0.82,-0.72,1012.57
9.284,1.26,2.92,0.11,4.51,-4.34,-5.97,-0.87,-0.70,0.55,1012.57
9.285,1.26,2.92,0.11,9.95,19.21,2.43,-0.87,-0.70,0.55,1012.57
9.326,-0.74,0.70,-0.06,9.95,19.21,2.43,-0.87,-0.70,0.55,1012.57
9.327,-0.74,0.70,-0.06,9.95,19.21,2.43,-0.23,1.98,-0.80,1012.57
9.328,-0.74,0.70,-0.06,-9.26,-2.53,0.41,-0.23,1.98,-0.80,1012.57
9.329,-0.74,0.70,-0.06,-9.26,-2.53,0.41,-0.23,1.98,-0.80,1012.55
9.365,-0.14,-0.14,-0.55,-9.26,-2.53,0.41,-0.23,1.98,-0.80,1012.55
9.367,-0.14,-0.14,-0.55,-9.26,-2.53,0.41,-0.21,0.37,-0.08,1012.55
9.369,-0.14,-0.14,-0.55,-3.28,-10.58,-4.40,-0.21,0.37,-0.08,1012.55
9.389,-0.14,-0.14,-0.55,-3.28,-10.58,-4.40,-0.21,0.37,-0.08,1012.56
9.401,0.54,1.56,0.13,-3.28,-10.58,-4.40,-0.21,0.37,-0.08,1012.56
9.403,0.54,1.56,0.13,-3.28,-10.58,-4.40,-0.99,-1.56,0.18,1012.56
9.405,0.54,1.56,0.13,3.31,5.93,2.03,-0.99,-1.56,0.18,1012.56
9.442,0.28,1.17,-0.06,3.31,5.93,2.03,-0.99,-1.56,0.18,1012.56
9.446,0.28,1.17,-0.06,3.31,5.93,2.03,-0.74,-0.61,0.22,1012.56
9.447,0.28,1.17,-0.06,0.64,2.04,-0.12,-0.74,-0.61,0.22,1012.56
9.454,0.28,1.17,-0.06,0.64,2.04,-0.12,-0.74,-0.61,0.22,1012.58
9.48,-0.05,0.82,-0.15,0.64,2.04,-0.12,-0.74,-0.61,0.22,1012.58
9.482,-0.05,0.82,-0.15,0.64,2.04,-0.12,-0.49,0.59,-0.01,1012.58
9.483,-0.05,0.82,-0.15,-2.59,-1.32,-1.16,-0.49,0.59,-0.01,1012.58
9.521,-0.05,0.82,-0.15,-2.59,-1.32,-1.16,-0.49,0.59,-0.01,1012.58
9.524,0.10,1.02,-0.08,-2.59,-1.32,-1.16,-0.49,0.59,-0.01,1012.58
9.526,0.10,1.02,-0.08,-2.59,-1.32,-1.16,-0.69,0.13,0.24,1012.58
9.526,0.10,1.02,-0.08,-1.13,0.58,-0.75,-0.69,0.13,0.24,1012.58
9.559,0.14,0.98,-0.07,-1.13,0.58,-0.75,-0.69,0.13,0.24,1012.58
9.561,0.14,0.98,-0.07,-1.13,0.58,-0.75,-0.87,-0.39,0.42,1012.58
9.562,0.14,0.98,-0.07,-0.91,0.30,-0.95,-0.87,-0.39,0.42,1012.58
9.568,0.14,0.98,-0.07,-0.91,0.30,-0.95,-0.87,-0.39,0.42,1012.57
9.599,0.27,0.95,0.04,-0.91,0.30,-0.95,-0.87,-0.39,0.42,1012.57
9.602,0.27,0.95,0.04,-0.91,0.30,-0.95,-0.95,-0.51,0.42,1012.57
9.605,0.27,0.95,0.04,0.20,0.04,-0.14,-0.95,-0.51,0.42,1012.57
9.633,0.27,0.95,0.04,0.20,0.04,-0.14,-0.95,-0.51,0.42,1012.56
9.673,0.28,0.93,0.14,0.20,0.04,-0.14,-0.95,-0.51,0.42,1012.56
9.676,0.28,0.93,0.14,0.20,0.04,-0.14,-0.86,-0.24,0.35,1012.56
9.677,0.28,0.93,0.14,0.21,-0.09,0.57,-0.86,-0.24,0.35,1012.56
9.678,0.27,0.90,0.28,0.21,-0.09,0.57,-0.86,-0.24,0.35,1012.56
9.678,0.27,0.90,0.28,0.21,-0.09,0.57,-0.63,-0.10,0.29,1012.56
9.679,0.27,0.90,0.28,-0.07,-0.38,1.65,-0.63,-0.10,0.29,1012.56
9.69,0.27,0.90,0.28,-0.07,-0.38,1.65,-0.63,-0.10,0.29,1012.56
9.718,0.28,0.91,0.37,-0.07,-0.38,1.65,-0.63,-0.10,0.29,1012.56
9.72,0.28,0.91,0.37,-0.06,-0.22,2.40,-0.63,-0.10,0.29,1012.56
9.722,0.28,0.91,0.37,-0.06,-0.22,2.40,-0.24,0.00,0.28,1012.56
9.748,0.28,0.91,0.37,-0.06,-0.22,2.40,-0.24,0.00,0.28,1012.56
9.771,0.33,0.95,0.21,-0.06,-0.22,2.40,-0.24,0.00,0.28,1012.56
9.772,0.33,0.95,0.21,-0.06,-0.22,2.40,0.13,0.16,0.28,1012.56
9.773,0.33,0.95,0.21,0.32,0.21,0.88,0.13,0.16,0.28,1012.56
9.797,0.32,0.92,0.06,0.32,0.21,0.88,0.13,0.16,0.28,1012.56
9.799,0.32,0.92,0.06,0.32,0.21,0.88,0.25,0.25,0.22,1012.56
9.8,0.32,0.92,0.06,0.18,-0.06,-0.55,0.25,0.25,0.22,1012.56
9.81,0.32,0.92,0.06,0.18,-0.06,-0.55,0.25,0.25,0.22,1012.56
9.844,0.32,0.92,0.06,-0.46,0.52,-1.17,0.25,0.25,0.22,1012.56
9.85,0.26,0.98,-0.01,-0.46,0.52,-1.17,0.25,0.25,0.22,1012.56
9.852,0.26,0.98,-0.01,-0.46,0.52,-1.17,0.18,0.29,0.12,1012.56
9.869,0.26,0.98,-0.01,-0.46,0.52,-1.17,0.18,0.29,0.12,1012.57
9.885,0.25,0.95,0.05,-0.46,0.52,-1.17,0.18,0.29,0.12,1012.57
9.886,0.25,0.95,0.05,-0.46,0.52,-1.17,0.06,0.21,0.12,1012.57
9.887,0.25,0.95,0.05,-0.53,0.25,-0.52,0.06,0.21,0.12,1012.57
9.914,0.26,0.96,0.09,-0.53,0.25,-0.52,0.06,0.21,0.12,1012.57
9.915,0.26,0.96,0.09,-0.53,0.25,-0.52,0.02,0.18,0.13,1012.57
9.915,0.26,0.96,0.09,-0.46,0.31,-0.22,0.02,0.18,0.13,1012.57
9.93,0.26,0.96,0.09,-0.46,0.31,-0.22,0.02,0.18,0.13,1012.58
9.963,0.29,0.93,0.09,-0.46,0.31,-0.22,0.02,0.18,0.13,1012.58
9.964,0.29,0.93,0.09,-0.46,0.31,-0.22,-0.01,0.09,0.16,1012.58
9.965,0.29,0.93,0.09,-0.24,0.09,-0.22,-0.01,0.09,0.16,1012.58
9.987,0.29,0.93,0.09,-0.24,0.09,-0.22,-0.01,0.09,0.16,1012.57
9.993,0.32,0.94,0.09,-0.24,0.09,-0.22,-0.01,0.09,0.16,1012.57
9.995,0.32,0.94,0.09,-0.24,0.09,-0.22,-0.01,0.07,0.14,1012.57
9.997,0.32,0.94,0.09,0.00,0.13,-0.19,-0.01,0.07,0.14,1012.57
10.043,0.31,0.95,0.07,0.00,0.13,-0.19,-0.01,0.07,0.14,1012.57
10.046,0.31,0.95,0.07,0.00,0.13,-0.19,-0.02,0.13,0.08,1012.57
10.047,0.31,0.95,0.07,-0.12,0.23,-0.43,-0.02,0.13,0.08,1012.57
10.051,0.31,0.95,0.07,-0.12,0.23,-0.43,-0.02,0.13,0.08,1012.56
10.073,0.30,0.92,0.11,-0.12,0.23,-0.43,-0.02,0.13,0.08,1012.56
10.076,0.30,0.92,0.11,-0.12,0.23,-0.43,-0.04,0.08,0.03,1012.56
10.077,0.30,0.92,0.11,-0.19,-0.05,-0.07,-0.04,0.08,0.03,1012.56
10.109,0.30,0.92,0.11,-0.19,-0.05,-0.07,-0.04,0.08,0.03,1012.56
10.113,0.30,0.94,0.10,-0.19,-0.05,-0.07,-0.04,0.08,0.03,1012.56
10.115,0.30,0.94,0.10,-0.19,-0.05,-0.07,-0.04,0.06,0.01,1012.56
10.117,0.30,0.94,0.10,-0.26,0.22,-0.13,-0.04,0.06,0.01,1012.56
10.156,0.30,0.95,0.11,-0.26,0.22,-0.13,-0.04,0.06,0.01,1012.56
10.159,0.30,0.95,0.11,-0.26,0.22,-0.13,-0.02,0.08,0.02,1012.56
10.161,0.30,0.95,0.11,-0.18,0.24,-0.11,-0.02,0.08,0.02,1012.56
10.168,0.30,0.95,0.11,-0.18,0.24,-0.11,-0.02,0.08,0.02,1012.57
10.191,0.30,0.95,0.09,-0.18,0.24,-0.11,-0.02,0.08,0.02,1012.57
10.193,0.30,0.95,0.09,-0.18,0.24,-0.11,-0.02,0.10,0.01,1012.57
10.195,0.30,0.95,0.09,-0.23,0.27,-0.32,-0.02,0.10,0.01,1012.57
10.243,0.30,0.95,0.09,-0.23,0.27,-0.32,-0.02,0.10,0.01,1012.56
10.246,0.29,0.92,0.10,-0.23,0.27,-0.32,-0.02,0.10,0.01,1012.56
10.247,0.29,0.92,0.10,-0.23,0.27,-0.32,-0.03,0.10,-0.02,1012.56
10.247,0.29,0.92,0.10,-0.33,-0.03,-0.25,-0.03,0.10,-0.02,1012.56
10.272,0.28,0.95,0.12,-0.33,-0.03,-0.25,-0.03,0.10,-0.02,1012.56
10.273,0.28,0.95,0.12,-0.33,-0.03,-0.25,-0.05,0.06,-0.02,1012.56
10.274,0.28,0.95,0.12,-0.38,0.27,-0.08,-0.05,0.06,-0.02,1012.56
10.286,0.28,0.95,0.12,-0.38,0.27,-0.08,-0.05,0.06,-0.02,1012.55
10.311,0.28,0.95,0.11,-0.38,0.27,-0.08,-0.05,0.06,-0.02,1012.55
10.314,0.28,0.95,0.11,-0.38,0.27,-0.08,-0.05,0.02,-0.00,1012.55
10.316,0.28,0.95,0.11,-0.35,0.23,-0.14,-0.05,0.02,-0.00,1012.55
10.354,0.28,0.95,0.11,-0.35,0.23,-0.14,-0.05,0.02,-0.00,1012.56
10.356,0.27,0.94,0.10,-0.35,0.23,-0.14,-0.05,0.02,-0.00,1012.56
10.357,0.27,0.94,0.10,-0.35,0.23,-0.14,-0.04,-0.00,0.00,1012.56
10.358,0.27,0.94,0.10,-0.44,0.16,-0.22,-0.04,-0.00,0.00,1012.56
10.389,0.29,0.93,0.12,-0.44,0.16,-0.22,-0.04,-0.00,0.00,1012.56
10.39,0.29,0.93,0.12,-0.44,0.16,-0.22,-0.05,0.01,0.03,1012.56
10.391,0.29,0.93,0.12,-0.27,0.09,-0.12,-0.05,0.01,0.03,1012.56
10.407,0.29,0.93,0.12,-0.27,0.09,-0.12,-0.05,0.01,0.03,1012.58
10.428,0.34,0.95,0.14,-0.27,0.09,-0.12,-0.05,0.01,0.03,1012.58
10.429,0.34,0.95,0.14,-0.27,0.09,-0.12,-0.03,0.09,0.02,1012.58
10.429,0.34,0.95,0.14,0.22,0.28,0.12,-0.03,0.09,0.02,1012.58
10.469,0.27,0.96,0.12,0.22,0.28,0.12,-0.03,0.09,0.02,1012.58
10.47,0.27,0.96,0.12,-0.45,0.39,-0.11,-0.03,0.09,0.02,1012.58
10.471,0.27,0.96,0.12,-0.45,0.39,-0.11,0.02,0.11,-0.03,1012.58
10.471,0.27,0.96,0.12,-0.45,0.39,-0.11,0.02,0.11,-0.03,1012.58
