time,gFx,gFy,gFz,ax,ay,az,wx,wy,wz,P
0.001,0.24,0.96,0.03,0.20,-0.01,0.17,-0.01,-0.08,0.04,1012.88
0.002,0.24,0.98,0.01,0.20,-0.01,0.17,-0.01,-0.08,0.04,1012.88
0.002,0.24,0.98,0.01,0.20,-0.01,0.17,0.02,-0.13,-0.00,1012.88
0.003,0.24,0.98,0.01,0.15,0.14,-0.08,0.02,-0.13,-0.00,1012.88
0.04,0.19,0.95,0.01,0.15,0.14,-0.08,0.02,-0.13,-0.00,1012.88
0.045,0.19,0.95,0.01,0.15,0.14,-0.08,0.02,0.03,-0.03,1012.88
0.045,0.19,0.95,0.01,-0.34,-0.19,-0.03,0.02,0.03,-0.03,1012.88
0.055,0.19,0.95,0.01,-0.34,-0.19,-0.03,0.02,0.03,-0.03,1012.87
0.079,0.22,0.99,-0.00,-0.34,-0.19,-0.03,0.02,0.03,-0.03,1012.87
0.081,0.22,0.99,-0.00,-0.34,-0.19,-0.03,0.03,-0.03,0.01,1012.87
0.083,0.22,0.99,-0.00,-0.02,0.20,-0.15,0.03,-0.03,0.01,1012.87
0.12,0.22,0.99,-0.00,0.29,0.07,0.07,0.03,-0.03,0.01,1012.87
0.121,0.22,0.99,-0.00,0.29,0.07,0.07,0.03,-0.03,0.01,1012.86
0.121,0.25,0.97,0.02,0.29,0.07,0.07,0.03,-0.03,0.01,1012.86
0.122,0.25,0.97,0.02,0.29,0.07,0.07,0.01,-0.06,-0.00,1012.86
0.159,0.20,0.97,0.00,0.29,0.07,0.07,0.01,-0.06,-0.00,1012.86
0.161,0.20,0.97,0.00,0.29,0.07,0.07,0.02,-0.01,-0.04,1012.86
0.162,0.20,0.97,0.00,-0.16,0.07,-0.07,0.02,-0.01,-0.04,1012.86
0.177,0.20,0.97,0.00,-0.16,0.07,-0.07,0.02,-0.01,-0.04,1012.86
0.208,0.23,0.96,0.01,-0.16,0.07,-0.07,0.02,-0.01,-0.04,1012.86
0.213,0.23,0.96,0.01,-0.16,0.07,-0.07,0.02,-0.05,-0.04,1012.86
0.219,0.23,0.96,0.01,0.14,-0.06,-0.00,0.02,-0.05,-0.04,1012.86
0.237,0.23,0.96,0.01,0.14,-0.06,-0.00,0.02,-0.05,-0.04,1012.86
0.237,0.20,0.98,0.00,0.14,-0.06,-0.00,0.02,-0.05,-0.04,1012.86
0.238,0.20,0.98,0.00,0.14,-0.06,-0.00,0.02,-0.02,-0.06,1012.86
0.239,0.20,0.98,0.00,-0.18,0.10,-0.07,0.02,-0.02,-0.06,1012.86
0.277,0.21,0.97,0.02,-0.18,0.10,-0.07,0.02,-0.02,-0.06,1012.86
0.279,0.21,0.97,0.02,-0.18,0.10,-0.07,0.03,-0.07,-0.05,1012.86
0.28,0.21,0.97,0.02,-0.06,0.02,0.09,0.03,-0.07,-0.05,1012.86
0.296,0.21,0.97,0.02,-0.06,0.02,0.09,0.03,-0.07,-0.05,1012.86
0.321,0.22,0.97,0.00,-0.06,0.02,0.09,0.03,-0.07,-0.05,1012.86
0.323,0.22,0.97,0.00,-0.06,0.02,0.09,0.06,-0.07,-0.06,1012.86
0.325,0.22,0.97,0.00,0.07,0.02,-0.03,0.06,-0.07,-0.06,1012.86
0.36,0.23,0.95,-0.01,0.07,0.02,-0.03,0.06,-0.07,-0.06,1012.86
0.363,0.23,0.95,-0.01,0.07,0.02,-0.03,0.05,-0.14,-0.08,1012.86
0.364,0.23,0.95,-0.01,0.19,-0.18,-0.08,0.05,-0.14,-0.08,1012.86
0.365,0.23,0.95,-0.01,0.19,-0.18,-0.08,0.05,-0.14,-0.08,1012.87
0.398,0.21,1.00,-0.00,0.19,-0.18,-0.08,0.05,-0.14,-0.08,1012.87
0.402,0.21,1.00,-0.00,0.19,-0.18,-0.08,0.05,-0.22,-0.11,1012.87
0.403,0.21,1.00,-0.00,0.05,0.26,0.02,0.05,-0.22,-0.11,1012.87
0.417,0.21,1.00,-0.00,0.05,0.26,0.02,0.05,-0.22,-0.11,1012.87
0.481,0.25,0.95,0.02,0.05,0.26,0.02,0.05,-0.22,-0.11,1012.87
0.482,0.25,0.95,0.02,0.05,0.26,0.02,0.07,-0.34,-0.13,1012.87
0.482,0.25,0.95,0.02,0.48,-0.16,0.26,0.07,-0.34,-0.13,1012.87
0.483,0.28,0.96,0.02,0.48,-0.16,0.26,0.07,-0.34,-0.13,1012.87
0.483,0.28,0.96,0.02,0.48,-0.16,0.26,0.11,-0.28,-0.18,1012.87
0.484,0.28,0.96,0.02,0.48,-0.16,0.26,0.11,-0.28,-0.18,1012.86
0.485,0.28,0.96,0.02,0.81,-0.09,0.35,0.11,-0.28,-0.18,1012.86
0.515,0.12,0.98,0.02,0.81,-0.09,0.35,0.11,-0.28,-0.18,1012.86
0.516,0.12,0.98,0.02,0.81,-0.09,0.35,0.17,-0.22,-0.25,1012.86
0.516,0.12,0.98,0.02,-0.67,0.10,0.40,0.17,-0.22,-0.25,1012.86
0.547,0.12,0.98,0.02,-0.67,0.10,0.40,0.17,-0.22,-0.25,1012.86
0.556,0.09,0.97,0.02,-0.67,0.10,0.40,0.17,-0.22,-0.25,1012.86
0.557,0.09,0.97,0.02,-0.67,0.10,0.40,0.26,-0.37,-0.18,1012.86
0.558,0.09,0.97,0.02,-0.81,-0.04,0.54,0.26,-0.37,-0.18,1012.86
0.599,0.12,0.97,0.03,-0.81,-0.04,0.54,0.26,-0.37,-0.18,1012.86
0.601,0.12,0.97,0.03,-0.81,-0.04,0.54,0.38,-0.43,-0.11,1012.86
0.601,0.12,0.97,0.03,-0.45,-0.05,0.77,0.38,-0.43,-0.11,1012.86
0.602,0.12,0.97,0.03,-0.45,-0.05,0.77,0.38,-0.43,-0.11,1012.87
0.634,0.12,0.94,-0.03,-0.45,-0.05,0.77,0.38,-0.43,-0.11,1012.87
0.637,0.12,0.94,-0.03,-0.45,-0.05,0.77,0.47,-0.41,-0.06,1012.87
0.639,0.12,0.94,-0.03,-0.48,-0.29,0.40,0.47,-0.41,-0.06,1012.87
0.657,0.12,0.94,-0.03,-0.48,-0.29,0.40,0.47,-0.41,-0.06,1012.89
0.672,0.12,0.95,-0.09,-0.48,-0.29,0.40,0.47,-0.41,-0.06,1012.89
0.674,0.12,0.95,-0.09,-0.48,-0.29,0.40,0.51,-0.46,-0.02,1012.89
0.675,0.12,0.95,-0.09,-0.43,-0.22,0.02,0.51,-0.46,-0.02,1012.89
0.726,0.16,0.99,-0.18,-0.43,-0.22,0.02,0.51,-0.46,-0.02,1012.89
0.727,0.16,0.99,-0.18,-0.43,-0.22,0.02,0.53,-0.55,0.02,1012.89
0.728,0.16,0.99,-0.18,-0.06,0.24,-0.60,0.53,-0.55,0.02,1012.89
0.728,0.16,0.99,-0.18,-0.06,0.24,-0.60,0.53,-0.55,0.02,1012.89
0.752,0.15,0.99,-0.08,-0.06,0.24,-0.60,0.53,-0.55,0.02,1012.89
0.754,0.15,0.99,-0.08,-0.06,0.24,-0.60,0.55,-0.44,0.02,1012.89
0.755,0.15,0.99,-0.08,-0.06,0.26,0.59,0.55,-0.44,0.02,1012.89
0.783,0.15,0.99,-0.08,-0.06,0.26,0.59,0.55,-0.44,0.02,1012.89
0.792,0.22,1.08,-0.24,-0.06,0.26,0.59,0.55,-0.44,0.02,1012.89
0.794,0.22,1.08,-0.24,-0.06,0.26,0.59,0.65,-0.12,0.03,1012.89
0.795,0.22,1.08,-0.24,0.62,1.14,-0.70,0.65,-0.12,0.03,1012.89
0.834,0.24,0.98,-0.35,0.62,1.14,-0.70,0.65,-0.12,0.03,1012.89
0.84,0.24,0.98,-0.35,0.62,1.14,-0.70,0.53,0.31,-0.03,1012.89
0.841,0.24,0.98,-0.35,0.77,0.18,-1.57,0.53,0.31,-0.03,1012.89
0.842,0.24,0.98,-0.35,0.77,0.18,-1.57,0.53,0.31,-0.03,1012.89
0.87,0.15,0.96,-0.32,0.77,0.18,-1.57,0.53,0.31,-0.03,1012.89
0.872,0.15,0.96,-0.32,0.77,0.18,-1.57,0.32,0.24,-0.14,1012.89
0.873,0.15,0.96,-0.32,-0.14,-0.03,-1.17,0.32,0.24,-0.14,1012.89
0.895,0.15,0.96,-0.32,-0.14,-0.03,-1.17,0.32,0.24,-0.14,1012.89
0.912,0.17,0.95,-0.21,-0.14,-0.03,-1.17,0.32,0.24,-0.14,1012.89
0.914,0.17,0.95,-0.21,-0.14,-0.03,-1.17,0.20,0.16,-0.14,1012.89
0.915,0.17,0.95,-0.21,0.12,-0.06,-0.03,0.20,0.16,-0.14,1012.89
0.949,-0.03,0.92,-0.22,0.12,-0.06,-0.03,0.20,0.16,-0.14,1012.89
0.951,-0.03,0.92,-0.22,0.12,-0.06,-0.03,0.22,0.31,-0.10,1012.89
0.952,-0.03,0.92,-0.22,-1.79,-0.39,-0.03,0.22,0.31,-0.10,1012.89
0.955,-0.03,0.92,-0.22,-1.79,-0.39,-0.03,0.22,0.31,-0.10,1012.89
0.991,0.02,0.90,-0.22,-1.79,-0.39,-0.03,0.22,0.31,-0.10,1012.89
0.994,0.02,0.90,-0.22,-1.79,-0.39,-0.03,0.23,0.01,0.17,1012.89
0.995,0.02,0.90,-0.22,-1.29,-0.56,0.00,0.23,0.01,0.17,1012.89
1.023,0.02,0.90,-0.22,-1.29,-0.56,0.00,0.23,0.01,0.17,1012.89
1.03,-0.01,0.95,-0.19,-1.29,-0.56,0.00,0.23,0.01,0.17,1012.89
1.03,-0.01,0.95,-0.19,-1.29,-0.56,0.00,0.29,-0.05,0.41,1012.89
1.033,-0.01,0.95,-0.19,-1.72,-0.03,0.44,0.29,-0.05,0.41,1012.89
1.068,-0.01,0.99,-0.25,-1.72,-0.03,0.44,0.29,-0.05,0.41,1012.89
1.069,-0.01,0.99,-0.25,-1.72,-0.03,0.44,0.39,-0.14,0.66,1012.89
1.07,-0.01,0.99,-0.25,-1.93,0.47,-0.00,0.39,-0.14,0.66,1012.89
1.076,-0.01,0.99,-0.25,-1.93,0.47,-0.00,0.39,-0.14,0.66,1012.89
1.122,0.33,0.94,-0.36,-1.93,0.47,-0.00,0.39,-0.14,0.66,1012.89
1.124,0.33,0.94,-0.36,-1.93,0.47,-0.00,0.36,-0.39,0.84,1012.89
1.124,0.33,0.94,-0.36,1.09,0.05,-0.89,0.36,-0.39,0.84,1012.89
1.149,0.33,0.94,-0.36,1.09,0.05,-0.89,0.36,-0.39,0.84,1012.89
1.151,0.47,1.06,-0.49,1.09,0.05,-0.89,0.36,-0.39,0.84,1012.89
1.151,0.47,1.06,-0.49,1.09,0.05,-0.89,0.19,-0.35,0.61,1012.89
1.152,0.47,1.06,-0.49,2.30,1.37,-2.11,0.19,-0.35,0.61,1012.89
1.188,0.49,1.32,-0.59,2.30,1.37,-2.11,0.19,-0.35,0.61,1012.89
1.192,0.49,1.32,-0.59,2.30,1.37,-2.11,-0.20,-0.38,0.10,1012.89
1.194,0.49,1.32,-0.59,2.40,3.77,-3.06,-0.20,-0.38,0.10,1012.89
1.196,0.49,1.32,-0.59,2.40,3.77,-3.06,-0.20,-0.38,0.10,1012.88
1.239,0.44,1.78,-0.27,2.40,3.77,-3.06,-0.20,-0.38,0.10,1012.88
1.241,0.44,1.78,-0.27,2.40,3.77,-3.06,-0.56,-0.22,-0.40,1012.88
1.242,0.44,1.78,-0.27,2.02,8.07,-0.11,-0.56,-0.22,-0.40,1012.88
1.277,0.44,1.78,-0.27,2.02,8.07,-0.11,-0.56,-0.22,-0.40,1012.88
1.28,-0.21,1.47,0.10,2.02,8.07,-0.11,-0.56,-0.22,-0.40,1012.88
1.282,-0.21,1.47,0.10,2.02,8.07,-0.11,-0.39,0.78,-0.74,1012.88
1.285,-0.21,1.47,0.10,-4.01,4.88,3.31,-0.39,0.78,-0.74,1012.88
1.321,-0.90,1.26,-0.18,-4.01,4.88,3.31,-0.39,0.78,-0.74,1012.88
1.323,-0.90,1.26,-0.18,-4.01,4.88,3.31,-0.15,0.64,-0.04,1012.88
1.323,-0.90,1.26,-0.18,-10.69,2.74,0.41,-0.15,0.64,-0.04,1012.88
1.324,-0.90,1.26,-0.18,-10.69,2.74,0.41,-0.15,0.64,-0.04,1012.87
1.358,0.72,1.46,-0.45,-10.69,2.74,0.41,-0.15,0.64,-0.04,1012.87
1.36,0.72,1.46,-0.45,4.19,4.95,-1.90,-0.15,0.64,-0.04,1012.87
1.361,0.72,1.46,-0.45,4.19,4.95,-1.90,0.58,-0.63,2.81,1012.87
1.375,0.72,1.46,-0.45,4.19,4.95,-1.90,0.58,-0.63,2.81,1012.86
1.387,0.87,1.77,-0.48,4.19,4.95,-1.90,0.58,-0.63,2.81,1012.86
1.389,0.87,1.77,-0.48,4.19,4.95,-1.90,1.52,1.35,3.24,1012.86
1.39,0.87,1.77,-0.48,4.21,8.45,-1.87,1.52,1.35,3.24,1012.86
1.439,0.12,1.63,-0.49,4.21,8.45,-1.87,1.52,1.35,3.24,1012.86
1.441,0.12,1.63,-0.49,4.21,8.45,-1.87,1.57,3.44,2.79,1012.86
1.442,0.12,1.63,-0.49,-4.36,7.63,-2.00,1.57,3.44,2.79,1012.86
1.442,0.12,1.63,-0.49,-4.36,7.63,-2.00,1.57,3.44,2.79,1012.86
1.465,0.23,1.21,-0.33,-4.36,7.63,-2.00,1.57,3.44,2.79,1012.86
1.467,0.23,1.21,-0.33,-4.36,7.63,-2.00,0.96,2.24,3.06,1012.86
1.467,0.23,1.21,-0.33,-4.38,4.26,-0.70,0.96,2.24,3.06,1012.86
1.495,0.23,1.21,-0.33,-4.38,4.26,-0.70,0.96,2.24,3.06,1012.86
1.511,0.24,0.62,-0.15,-4.38,4.26,-0.70,0.96,2.24,3.06,1012.86
1.512,0.24,0.62,-0.15,-4.38,4.26,-0.70,0.53,0.46,2.48,1012.86
1.513,0.24,0.62,-0.15,-4.96,-0.72,1.09,0.53,0.46,2.48,1012.86
1.56,-0.02,0.33,-0.06,-4.96,-0.72,1.09,0.53,0.46,2.48,1012.86
1.561,-0.02,0.33,-0.06,-4.96,-0.72,1.09,0.33,-0.10,1.26,1012.86
1.562,-0.02,0.33,-0.06,-7.68,-3.12,2.03,0.33,-0.10,1.26,1012.86
1.563,-0.02,0.33,-0.06,-7.68,-3.12,2.03,0.33,-0.10,1.26,1012.87
1.582,-0.12,-0.04,0.00,-7.68,-3.12,2.03,0.33,-0.10,1.26,1012.87
1.584,-0.12,-0.04,0.00,-7.68,-3.12,2.03,0.06,-0.41,-0.11,1012.87
1.585,-0.12,-0.04,0.00,-8.47,-6.63,2.76,0.06,-0.41,-0.11,1012.87
1.617,-0.12,-0.04,0.00,-8.47,-6.63,2.76,0.06,-0.41,-0.11,1012.86
1.629,-0.12,-0.04,0.00,-7.81,-7.79,2.51,0.06,-0.41,-0.11,1012.86
1.63,-0.12,-0.13,-0.04,-7.81,-7.79,2.51,0.06,-0.41,-0.11,1012.86
1.631,-0.12,-0.13,-0.04,-7.81,-7.79,2.51,-0.03,-0.97,-1.59,1012.86
1.66,0.06,-0.08,-0.12,-7.81,-7.79,2.51,-0.03,-0.97,-1.59,1012.86
1.662,0.06,-0.08,-0.12,-7.81,-7.79,2.51,-0.14,-1.71,-2.83,1012.86
1.663,0.06,-0.08,-0.12,-4.96,-7.87,2.08,-0.14,-1.71,-2.83,1012.86
1.674,0.06,-0.08,-0.12,-4.96,-7.87,2.08,-0.14,-1.71,-2.83,1012.84
1.707,0.53,-0.10,-0.45,-4.96,-7.87,2.08,-0.14,-1.71,-2.83,1012.84
1.722,0.53,-0.10,-0.45,-4.96,-7.87,2.08,-0.43,-2.84,-3.24,1012.84
1.724,0.53,-0.10,-0.45,0.93,-8.70,-0.71,-0.43,-2.84,-3.24,1012.84
1.742,0.53,-0.10,-0.45,0.93,-8.70,-0.71,-0.43,-2.84,-3.24,1012.82
1.743,1.68,-0.01,-0.60,0.93,-8.70,-0.71,-0.43,-2.84,-3.24,1012.82
1.744,1.68,-0.01,-0.60,0.93,-8.70,-0.71,-0.55,-2.28,-2.54,1012.82
1.744,1.68,-0.01,-0.60,13.13,-8.11,-1.95,-0.55,-2.28,-2.54,1012.82
1.778,1.68,-0.22,-0.50,13.13,-8.11,-1.95,-0.55,-2.28,-2.54,1012.82
1.779,1.68,-0.22,-0.50,13.13,-8.11,-1.95,-0.16,0.79,-1.82,1012.82
1.78,1.68,-0.22,-0.50,13.32,-10.22,-1.08,-0.16,0.79,-1.82,1012.82
1.793,1.68,-0.22,-0.50,13.32,-10.22,-1.08,-0.16,0.79,-1.82,1012.81
1.825,1.43,1.43,-0.51,13.32,-10.22,-1.08,-0.16,0.79,-1.82,1012.81
1.826,1.43,1.43,-0.51,10.69,5.92,-1.14,-0.16,0.79,-1.82,1012.81
1.827,1.43,1.43,-0.51,10.69,5.92,-1.14,0.75,1.74,-0.53,1012.81
1.855,1.43,1.43,-0.51,10.69,5.92,-1.14,0.75,1.74,-0.53,1012.82
1.857,-0.98,2.14,-0.82,10.69,5.92,-1.14,0.75,1.74,-0.53,1012.82
1.858,-0.98,2.14,-0.82,10.69,5.92,-1.14,-0.07,1.16,-0.74,1012.82
1.858,-0.98,2.14,-0.82,-12.69,12.58,-4.28,-0.07,1.16,-0.74,1012.82
1.897,0.92,-0.35,-0.12,-12.69,12.58,-4.28,-0.07,1.16,-0.74,1012.82
1.898,0.92,-0.35,-0.12,-12.69,12.58,-4.28,-0.58,-2.21,1.11,1012.82
1.899,0.92,-0.35,-0.12,5.80,-11.61,2.59,-0.58,-2.21,1.11,1012.82
1.913,0.92,-0.35,-0.12,5.80,-11.61,2.59,-0.58,-2.21,1.11,1012.83
1.936,1.24,1.54,-0.58,5.80,-11.61,2.59,-0.58,-2.21,1.11,1012.83
1.937,1.24,1.54,-0.58,5.80,-11.61,2.59,0.07,0.04,0.06,1012.83
1.938,1.24,1.54,-0.58,8.78,6.81,-1.88,0.07,0.04,0.06,1012.83
1.974,1.24,1.54,-0.58,8.78,6.81,-1.88,0.07,0.04,0.06,1012.83
1.975,-0.14,0.80,-0.49,8.78,6.81,-1.88,0.07,0.04,0.06,1012.83
1.977,-0.14,0.80,-0.49,8.78,6.81,-1.88,-0.27,0.76,-1.14,1012.83
1.977,-0.14,0.80,-0.49,-4.46,-0.66,-1.12,-0.27,0.76,-1.14,1012.83
2.021,0.62,1.01,-0.47,-4.46,-0.66,-1.12,-0.27,0.76,-1.14,1012.83
2.023,0.62,1.01,-0.47,-4.46,-0.66,-1.12,-0.36,-0.18,-0.50,1012.83
2.023,0.62,1.01,-0.47,3.15,1.35,-1.10,-0.36,-0.18,-0.50,1012.83
2.077,0.62,1.01,-0.47,3.15,1.35,-1.10,-0.36,-0.18,-0.50,1012.82
2.08,0.20,0.80,-0.39,3.15,1.35,-1.10,-0.36,-0.18,-0.50,1012.82
2.081,0.20,0.80,-0.39,3.15,1.35,-1.10,-0.55,0.49,-0.97,1012.82
2.081,0.20,0.80,-0.39,-0.70,-0.89,-0.54,-0.55,0.49,-0.97,1012.82
2.094,0.11,0.92,-0.27,-0.70,-0.89,-0.54,-0.55,0.49,-0.97,1012.82
2.096,0.11,0.92,-0.27,-0.70,-0.89,-0.54,-0.56,0.22,-0.90,1012.82
2.096,0.11,0.92,-0.27,-0.70,-0.89,-0.54,-0.56,0.22,-0.90,1012.81
2.097,0.11,0.92,-0.27,-1.27,0.05,0.49,-0.56,0.22,-0.90,1012.81
2.138,0.03,0.84,-0.16,-1.27,0.05,0.49,-0.56,0.22,-0.90,1012.81
2.14,0.03,0.84,-0.16,-1.27,0.05,0.49,-0.47,0.19,-0.69,1012.81
2.141,0.03,0.84,-0.16,-1.81,-0.75,1.33,-0.47,0.19,-0.69,1012.81
2.17,0.03,0.84,-0.16,-1.81,-0.75,1.33,-0.47,0.19,-0.69,1012.81
2.175,-0.21,0.87,-0.21,-1.81,-0.75,1.33,-0.47,0.19,-0.69,1012.81
2.176,-0.21,0.87,-0.21,-1.81,-0.75,1.33,-0.23,0.26,-0.39,1012.81
2.178,-0.21,0.87,-0.21,-4.01,-0.59,0.67,-0.23,0.26,-0.39,1012.81
2.221,-0.04,0.90,-0.25,-4.01,-0.59,0.67,-0.23,0.26,-0.39,1012.81
2.222,-0.04,0.90,-0.25,-4.01,-0.59,0.67,-0.12,-0.34,0.20,1012.81
2.223,-0.04,0.90,-0.25,-2.32,-0.21,0.28,-0.12,-0.34,0.20,1012.81
2.224,-0.04,0.90,-0.25,-2.32,-0.21,0.28,-0.12,-0.34,0.20,1012.82
2.254,0.22,1.05,-0.34,-2.32,-0.21,0.28,-0.12,-0.34,0.20,1012.82
2.256,0.22,1.05,-0.34,-2.32,-0.21,0.28,-0.07,-0.56,0.51,1012.82
2.257,0.22,1.05,-0.34,0.09,1.26,-0.53,-0.07,-0.56,0.51,1012.82
2.273,0.22,1.05,-0.34,0.09,1.26,-0.53,-0.07,-0.56,0.51,1012.82
2.293,0.22,1.05,-0.34,2.05,2.58,-1.16,-0.07,-0.56,0.51,1012.82
2.295,0.43,1.19,-0.40,2.05,2.58,-1.16,-0.07,-0.56,0.51,1012.82
2.295,0.43,1.19,-0.40,2.05,2.58,-1.16,-0.16,-0.25,0.47,1012.82
2.336,0.30,1.40,-0.36,2.05,2.58,-1.16,-0.16,-0.25,0.47,1012.82
2.339,0.30,1.40,-0.36,2.05,2.58,-1.16,-0.34,0.45,0.12,1012.82
2.34,0.30,1.40,-0.36,0.68,4.52,-0.90,-0.34,0.45,0.12,1012.82
2.341,0.30,1.40,-0.36,0.68,4.52,-0.90,-0.34,0.45,0.12,1012.82
2.372,-0.04,1.73,-0.22,0.68,4.52,-0.90,-0.34,0.45,0.12,1012.82
2.373,-0.04,1.73,-0.22,0.68,4.52,-0.90,-0.54,0.70,0.00,1012.82
2.373,-0.04,1.73,-0.22,-2.72,7.56,0.24,-0.54,0.70,0.00,1012.82
2.393,-0.04,1.73,-0.22,-2.72,7.56,0.24,-0.54,0.70,0.00,1012.81
2.413,-0.36,1.43,-0.12,-2.72,7.56,0.24,-0.54,0.70,0.00,1012.81
2.415,-0.36,1.43,-0.12,-2.72,7.56,0.24,-0.59,0.67,0.28,1012.81
2.416,-0.36,1.43,-0.12,-5.91,4.51,0.85,-0.59,0.67,0.28,1012.81
2.45,-0.12,1.23,-0.36,-5.91,4.51,0.85,-0.59,0.67,0.28,1012.81
2.459,-0.12,1.23,-0.36,-5.91,4.51,0.85,-0.26,0.41,0.69,1012.81
2.46,-0.12,1.23,-0.36,-3.80,2.55,-1.58,-0.26,0.41,0.69,1012.81
2.461,-0.12,1.23,-0.36,-3.80,2.55,-1.58,-0.26,0.41,0.69,1012.81
2.49,0.42,1.37,-0.43,-3.80,2.55,-1.58,-0.26,0.41,0.69,1012.81
2.493,0.42,1.37,-0.43,-3.80,2.55,-1.58,0.08,-0.84,1.98,1012.81
2.494,0.42,1.37,-0.43,0.80,4.10,-2.08,0.08,-0.84,1.98,1012.81
2.514,0.42,1.37,-0.43,0.80,4.10,-2.08,0.08,-0.84,1.98,1012.82
2.539,0.42,1.37,-0.43,1.61,3.08,-1.38,0.08,-0.84,1.98,1012.82
2.54,0.59,1.22,-0.39,1.61,3.08,-1.38,0.08,-0.84,1.98,1012.82
2.541,0.59,1.22,-0.39,1.61,3.08,-1.38,0.42,-0.97,2.75,1012.82
2.57,0.66,1.08,-0.37,1.61,3.08,-1.38,0.42,-0.97,2.75,1012.82
2.571,0.66,1.08,-0.37,1.61,3.08,-1.38,0.58,0.29,2.63,1012.82
2.572,0.66,1.08,-0.37,1.61,3.08,-1.38,0.58,0.29,2.63,1012.82
2.572,0.66,1.08,-0.37,1.29,2.20,-1.07,0.58,0.29,2.63,1012.82
2.612,0.61,0.98,-0.36,1.29,2.20,-1.07,0.58,0.29,2.63,1012.82
2.614,0.61,0.98,-0.36,1.29,2.20,-1.07,0.54,1.23,2.50,1012.82
2.615,0.61,0.98,-0.36,-0.08,1.80,-1.00,0.54,1.23,2.50,1012.82
2.647,0.61,0.98,-0.36,-0.08,1.80,-1.00,0.54,1.23,2.50,1012.82
2.649,0.33,0.81,-0.23,-0.08,1.80,-1.00,0.54,1.23,2.50,1012.82
2.65,0.33,0.81,-0.23,-0.08,1.80,-1.00,0.32,0.87,2.27,1012.82
2.65,0.33,0.81,-0.23,-3.51,0.71,0.12,0.32,0.87,2.27,1012.82
2.691,0.13,0.54,-0.10,-3.51,0.71,0.12,0.32,0.87,2.27,1012.82
2.695,0.13,0.54,-0.10,-3.51,0.71,0.12,0.26,-0.32,1.73,1012.82
2.697,0.13,0.54,-0.10,-5.86,-1.37,1.56,0.26,-0.32,1.73,1012.82
2.699,0.13,0.54,-0.10,-5.86,-1.37,1.56,0.26,-0.32,1.73,1012.81
2.742,0.19,0.43,-0.03,-5.86,-1.37,1.56,0.26,-0.32,1.73,1012.81
2.744,0.19,0.43,-0.03,-5.86,-1.37,1.56,0.25,-1.23,1.05,1012.81
2.745,0.19,0.43,-0.03,-5.34,-2.10,2.61,0.25,-1.23,1.05,1012.81
2.778,0.19,0.43,-0.03,-5.34,-2.10,2.61,0.25,-1.23,1.05,1012.80
2.78,0.20,0.08,0.02,-5.34,-2.10,2.61,0.25,-1.23,1.05,1012.80
2.781,0.20,0.08,0.02,-5.34,-2.10,2.61,0.08,-1.14,-0.12,1012.80
2.782,0.20,0.08,0.02,-5.00,-5.45,3.38,0.08,-1.14,-0.12,1012.80
2.817,0.10,-0.11,-0.01,-5.00,-5.45,3.38,0.08,-1.14,-0.12,1012.80
2.819,0.10,-0.11,-0.01,-5.00,-5.45,3.38,-0.05,-0.58,-1.52,1012.80
2.823,0.10,-0.11,-0.01,-5.36,-7.61,3.16,-0.05,-0.58,-1.52,1012.80
2.823,0.10,-0.11,-0.01,-5.36,-7.61,3.16,-0.05,-0.58,-1.52,1012.78
2.853,0.21,0.02,-0.08,-5.36,-7.61,3.16,-0.05,-0.58,-1.52,1012.78
2.855,0.21,0.02,-0.08,-5.36,-7.61,3.16,-0.18,-0.88,-2.59,1012.78
2.856,0.21,0.02,-0.08,-3.44,-6.84,2.57,-0.18,-0.88,-2.59,1012.78
2.873,0.21,0.02,-0.08,-3.44,-6.84,2.57,-0.18,-0.88,-2.59,1012.77
2.885,0.63,0.02,-0.29,-3.44,-6.84,2.57,-0.18,-0.88,-2.59,1012.77
2.887,0.63,0.02,-0.29,-3.44,-6.84,2.57,-0.35,-1.79,-2.79,1012.77
2.888,0.63,0.02,-0.29,1.72,-7.36,0.75,-0.35,-1.79,-2.79,1012.77
2.931,0.63,0.02,-0.29,10.23,-6.48,-1.09,-0.35,-1.79,-2.79,1012.77
2.933,1.43,0.13,-0.49,10.23,-6.48,-1.09,-0.35,-1.79,-2.79,1012.77
2.934,1.43,0.13,-0.49,10.23,-6.48,-1.09,-0.39,-1.51,-2.03,1012.77
2.944,1.43,0.13,-0.49,10.23,-6.48,-1.09,-0.39,-1.51,-2.03,1012.77
2.965,1.36,-0.10,-0.69,10.23,-6.48,-1.09,-0.39,-1.51,-2.03,1012.77
2.966,1.36,-0.10,-0.69,9.66,-8.86,-3.09,-0.39,-1.51,-2.03,1012.77
2.966,1.36,-0.10,-0.69,9.66,-8.86,-3.09,-0.04,0.68,-1.43,1012.77
2.993,1.36,-0.10,-0.69,9.66,-8.86,-3.09,-0.04,0.68,-1.43,1012.78
3.007,1.40,2.14,-0.35,9.66,-8.86,-3.09,-0.04,0.68,-1.43,1012.78
3.011,1.40,2.14,-0.35,9.66,-8.86,-3.09,0.59,1.04,0.13,1012.78
3.013,1.40,2.14,-0.35,9.75,12.97,0.23,0.59,1.04,0.13,1012.78
3.059,-1.08,0.83,-0.79,9.75,12.97,0.23,0.59,1.04,0.13,1012.78
3.061,-1.08,0.83,-0.79,9.75,12.97,0.23,0.10,0.57,-0.94,1012.78
3.062,-1.08,0.83,-0.79,-14.15,0.05,-4.02,0.10,0.57,-0.94,1012.78
3.063,-1.08,0.83,-0.79,-14.15,0.05,-4.02,0.10,0.57,-0.94,1012.79
3.1,1.53,0.54,-0.23,-14.15,0.05,-4.02,0.10,0.57,-0.94,1012.79
3.103,1.53,0.54,-0.23,-14.15,0.05,-4.02,-0.02,-1.69,0.82,1012.79
3.106,1.53,0.54,-0.23,11.32,-2.64,1.65,-0.02,-1.69,0.82,1012.79
3.113,1.53,0.54,-0.23,11.32,-2.64,1.65,-0.02,-1.69,0.82,1012.79
3.129,0.26,1.13,-0.65,11.32,-2.64,1.65,-0.02,-1.69,0.82,1012.79
3.13,0.26,1.13,-0.65,11.32,-2.64,1.65,0.12,0.62,-0.76,1012.79
3.13,0.26,1.13,-0.65,-1.02,2.96,-2.43,0.12,0.62,-0.76,1012.79
3.163,0.26,1.13,-0.65,-0.30,0.57,-1.36,0.12,0.62,-0.76,1012.79
3.165,0.31,0.90,-0.54,-0.30,0.57,-1.36,0.12,0.62,-0.76,1012.79
3.166,0.31,0.90,-0.54,-0.30,0.57,-1.36,-0.16,-0.12,-0.59,1012.79
3.173,0.31,0.90,-0.54,-0.30,0.57,-1.36,-0.16,-0.12,-0.59,1012.79
3.202,0.56,0.88,-0.37,-0.30,0.57,-1.36,-0.16,-0.12,-0.59,1012.79
3.205,0.56,0.88,-0.37,-0.30,0.57,-1.36,-0.34,-0.39,-0.63,1012.79
3.207,0.56,0.88,-0.37,2.32,0.26,0.20,-0.34,-0.39,-0.63,1012.79
3.235,0.56,0.88,-0.37,2.32,0.26,0.20,-0.34,-0.39,-0.63,1012.79
3.244,0.28,0.85,-0.37,2.32,0.26,0.20,-0.34,-0.39,-0.63,1012.79
3.246,0.28,0.85,-0.37,2.32,0.26,0.20,-0.33,0.11,-0.91,1012.79
3.249,0.28,0.85,-0.37,-0.05,-0.13,0.03,-0.33,0.11,-0.91,1012.79
3.281,0.27,0.90,-0.35,-0.05,-0.13,0.03,-0.33,0.11,-0.91,1012.79
3.284,0.27,0.90,-0.35,-0.05,-0.13,0.03,-0.32,-0.02,-0.91,1012.79
3.286,0.27,0.90,-0.35,0.13,0.15,0.13,-0.32,-0.02,-0.91,1012.79
3.328,0.27,0.90,-0.35,0.13,0.15,0.13,-0.32,-0.02,-0.91,1012.78
3.33,0.10,0.89,-0.36,0.13,0.15,0.13,-0.32,-0.02,-0.91,1012.78
3.33,0.10,0.89,-0.36,0.13,0.15,0.13,-0.30,0.25,-0.90,1012.78
3.331,0.10,0.89,-0.36,-1.27,-0.07,-0.05,-0.30,0.25,-0.90,1012.78
3.352,0.10,0.89,-0.36,-1.27,-0.07,-0.05,-0.30,0.25,-0.90,1012.77
3.37,-0.08,0.85,-0.31,-1.27,-0.07,-0.05,-0.30,0.25,-0.90,1012.77
3.373,-0.08,0.85,-0.31,-1.27,-0.07,-0.05,-0.24,0.41,-0.71,1012.77
3.374,-0.08,0.85,-0.31,-2.74,-0.51,0.35,-0.24,0.41,-0.71,1012.77
3.41,-0.01,0.88,-0.24,-2.74,-0.51,0.35,-0.24,0.41,-0.71,1012.77
3.413,-0.01,0.88,-0.24,-2.74,-0.51,0.35,-0.12,0.19,-0.31,1012.77
3.414,-0.01,0.88,-0.24,-1.93,-0.27,0.92,-0.12,0.19,-0.31,1012.77
3.415,-0.01,0.88,-0.24,-1.93,-0.27,0.92,-0.12,0.19,-0.31,1012.75
3.459,-0.01,0.88,-0.24,-1.86,-0.09,0.68,-0.12,0.19,-0.31,1012.75
3.461,0.00,0.90,-0.26,-1.86,-0.09,0.68,-0.12,0.19,-0.31,1012.75
3.461,0.00,0.90,-0.26,-1.86,-0.09,0.68,0.04,0.16,0.00,1012.75
3.491,0.00,0.90,-0.26,-1.86,-0.09,0.68,0.04,0.16,0.00,1012.74
3.493,0.00,0.90,-0.26,-1.27,0.28,0.11,0.04,0.16,0.00,1012.74
3.494,0.07,0.93,-0.33,-1.27,0.28,0.11,0.04,0.16,0.00,1012.74
3.495,0.07,0.93,-0.33,-1.27,0.28,0.11,0.14,0.09,0.27,1012.74
3.517,0.09,1.00,-0.51,-1.27,0.28,0.11,0.14,0.09,0.27,1012.74
3.518,0.09,1.00,-0.51,-1.27,0.28,0.11,0.09,0.03,0.39,1012.74
3.519,0.09,1.00,-0.51,-1.23,0.94,-1.68,0.09,0.03,0.39,1012.74
3.538,0.09,1.00,-0.51,-1.23,0.94,-1.68,0.09,0.03,0.39,1012.75
3.571,0.12,1.09,-0.67,-1.23,0.94,-1.68,0.09,0.03,0.39,1012.75
3.574,0.12,1.09,-0.67,-1.23,0.94,-1.68,-0.22,-0.03,0.41,1012.75
3.576,0.12,1.09,-0.67,-1.03,1.85,-3.23,-0.22,-0.03,0.41,1012.75
3.593,0.12,1.09,-0.67,-1.03,1.85,-3.23,-0.22,-0.03,0.41,1012.76
3.598,0.67,1.32,-0.48,-1.03,1.85,-3.23,-0.22,-0.03,0.41,1012.76
3.599,0.67,1.32,-0.48,-1.03,1.85,-3.23,-0.51,-0.37,0.36,1012.76
3.6,0.67,1.32,-0.48,4.20,4.03,-1.47,-0.51,-0.37,0.36,1012.76
3.638,0.66,1.55,-0.03,4.20,4.03,-1.47,-0.51,-0.37,0.36,1012.76
3.64,0.66,1.55,-0.03,4.20,4.03,-1.47,-0.71,0.35,-0.31,1012.76
3.641,0.66,1.55,-0.03,4.09,5.99,2.56,-0.71,0.35,-0.31,1012.76
3.652,0.66,1.55,-0.03,4.09,5.99,2.56,-0.71,0.35,-0.31,1012.76
3.676,-0.28,1.48,-0.05,4.09,5.99,2.56,-0.71,0.35,-0.31,1012.76
3.677,-0.28,1.48,-0.05,4.09,5.99,2.56,-0.64,0.74,-0.86,1012.76
3.678,-0.28,1.48,-0.05,-4.78,5.08,2.11,-0.64,0.74,-0.86,1012.76
3.713,-0.28,1.48,-0.05,-4.78,5.08,2.11,-0.64,0.74,-0.86,1012.76
3.717,-0.48,1.14,-0.15,-4.78,5.08,2.11,-0.64,0.74,-0.86,1012.76
3.719,-0.48,1.14,-0.15,-4.78,5.08,2.11,-0.50,0.32,-0.25,1012.76
3.721,-0.48,1.14,-0.15,-6.57,1.71,0.84,-0.50,0.32,-0.25,1012.76
3.754,0.25,1.25,-0.40,-6.57,1.71,0.84,-0.50,0.32,-0.25,1012.76
3.756,0.25,1.25,-0.40,-6.57,1.71,0.84,0.00,-0.15,1.24,1012.76
3.756,0.25,1.25,-0.40,0.18,2.78,-1.50,0.00,-0.15,1.24,1012.76
3.777,0.25,1.25,-0.40,0.18,2.78,-1.50,0.00,-0.15,1.24,1012.76
3.794,0.47,1.34,-0.33,0.18,2.78,-1.50,0.00,-0.15,1.24,1012.76
3.796,0.47,1.34,-0.33,0.18,2.78,-1.50,0.42,0.18,2.31,1012.76
3.796,0.47,1.34,-0.33,1.40,3.88,-0.68,0.42,0.18,2.31,1012.76
3.841,0.47,1.34,-0.33,1.40,3.88,-0.68,0.42,0.18,2.31,1012.77
3.843,0.30,1.37,-0.33,1.40,3.88,-0.68,0.42,0.18,2.31,1012.77
3.843,0.30,1.37,-0.33,1.40,3.88,-0.68,0.68,1.41,2.50,1012.77
3.844,0.30,1.37,-0.33,-1.21,4.59,-0.63,0.68,1.41,2.50,1012.77
3.873,0.35,1.18,-0.36,-1.21,4.59,-0.63,0.68,1.41,2.50,1012.77
3.875,0.35,1.18,-0.36,-1.21,4.59,-0.63,0.59,2.01,2.61,1012.77
3.875,0.35,1.18,-0.36,-1.85,3.19,-1.16,0.59,2.01,2.61,1012.77
3.891,0.35,1.18,-0.36,-1.85,3.19,-1.16,0.59,2.01,2.61,1012.77
3.914,0.29,0.88,-0.28,-1.85,3.19,-1.16,0.59,2.01,2.61,1012.77
3.917,0.29,0.88,-0.28,-1.85,3.19,-1.16,0.29,1.53,2.43,1012.77
3.919,0.29,0.88,-0.28,-3.24,0.80,-0.55,0.29,1.53,2.43,1012.77
3.952,0.30,0.65,-0.30,-3.24,0.80,-0.55,0.29,1.53,2.43,1012.77
3.953,0.30,0.65,-0.30,-3.24,0.80,-0.55,0.23,0.45,2.20,1012.77
3.954,0.30,0.65,-0.30,-3.79,-0.80,-0.84,0.23,0.45,2.20,1012.77
3.955,0.30,0.65,-0.30,-3.79,-0.80,-0.84,0.23,0.45,2.20,1012.77
3.991,0.28,0.55,-0.30,-3.79,-0.80,-0.84,0.23,0.45,2.20,1012.77
3.994,0.28,0.55,-0.30,-3.79,-0.80,-0.84,0.26,-0.43,1.64,1012.77
3.995,0.28,0.55,-0.30,-4.34,-1.27,-0.57,0.26,-0.43,1.64,1012.77
4.013,0.28,0.55,-0.30,-4.34,-1.27,-0.57,0.26,-0.43,1.64,1012.77
4.043,0.28,0.55,-0.30,-5.14,-2.05,-0.34,0.26,-0.43,1.64,1012.77
4.045,0.20,0.44,-0.31,-5.14,-2.05,-0.34,0.26,-0.43,1.64,1012.77
4.046,0.20,0.44,-0.31,-5.14,-2.05,-0.34,0.23,-0.95,0.85,1012.77
4.073,0.11,0.23,-0.28,-5.14,-2.05,-0.34,0.23,-0.95,0.85,1012.77
4.076,0.11,0.23,-0.28,-5.14,-2.05,-0.34,0.12,-1.35,-0.10,1012.77
4.077,0.11,0.23,-0.28,-5.77,-4.09,0.30,0.12,-1.35,-0.10,1012.77
4.078,0.11,0.23,-0.28,-5.77,-4.09,0.30,0.12,-1.35,-0.10,1012.77
4.11,0.07,0.02,-0.30,-5.77,-4.09,0.30,0.12,-1.35,-0.10,1012.77
4.112,0.07,0.02,-0.30,-5.77,-4.09,0.30,0.10,-1.90,-1.14,1012.77
4.112,0.07,0.02,-0.30,-5.56,-6.36,0.69,0.10,-1.90,-1.14,1012.77
4.132,0.07,0.02,-0.30,-5.56,-6.36,0.69,0.10,-1.90,-1.14,1012.76
4.162,0.31,0.04,-0.32,-5.56,-6.36,0.69,0.10,-1.90,-1.14,1012.76
4.163,0.31,0.04,-0.32,-5.56,-6.36,0.69,0.03,-2.40,-2.00,1012.76
4.164,0.31,0.04,-0.32,-2.18,-6.49,1.00,0.03,-2.40,-2.00,1012.76
4.21,0.61,0.05,-0.33,-2.18,-6.49,1.00,0.03,-2.40,-2.00,1012.76
4.214,0.61,0.05,-0.33,-2.18,-6.49,1.00,-0.15,-1.99,-2.61,1012.76
4.215,0.61,0.05,-0.33,-2.18,-6.49,1.00,-0.15,-1.99,-2.61,1012.74
4.217,0.61,0.05,-0.33,1.75,-6.79,1.18,-0.15,-1.99,-2.61,1012.74
4.229,0.87,0.01,-0.26,1.75,-6.79,1.18,-0.15,-1.99,-2.61,1012.74
4.231,0.87,0.01,-0.26,1.75,-6.79,1.18,-0.32,-1.02,-2.77,1012.74
4.233,0.87,0.01,-0.26,5.20,-7.47,1.88,-0.32,-1.02,-2.77,1012.74
4.259,0.87,0.01,-0.26,5.20,-7.47,1.88,-0.32,-1.02,-2.77,1012.75
4.27,1.35,-0.32,-0.51,5.20,-7.47,1.88,-0.32,-1.02,-2.77,1012.75
4.271,1.35,-0.32,-0.51,5.20,-7.47,1.88,-0.21,-0.48,-2.24,1012.75
4.271,1.35,-0.32,-0.51,10.46,-10.82,-0.55,-0.21,-0.48,-2.24,1012.75
4.31,2.81,2.57,-0.31,10.46,-10.82,-0.55,-0.21,-0.48,-2.24,1012.75
4.311,2.81,2.57,-0.31,10.46,-10.82,-0.55,0.32,0.11,0.35,1012.75
4.312,2.81,2.57,-0.31,24.24,17.25,1.53,0.32,0.11,0.35,1012.75
4.312,2.81,2.57,-0.31,24.24,17.25,1.53,0.32,0.11,0.35,1012.74
4.351,2.81,2.57,-0.31,24.24,17.25,1.53,0.32,0.11,0.35,1012.75
4.385,2.81,2.57,-0.31,24.24,17.25,1.53,-0.22,2.36,-1.23,1012.75
4.386,2.81,2.57,-0.31,24.24,17.25,1.53,-0.16,-1.96,0.59,1012.75
4.392,2.81,2.57,-0.31,23.82,16.77,1.13,-0.16,-1.96,0.59,1012.75
4.393,2.81,2.57,-0.31,23.55,16.54,1.33,-0.16,-1.96,0.59,1012.75
4.408,2.81,2.57,-0.31,23.55,16.54,1.33,-0.16,-1.96,0.59,1012.74
4.424,2.81,2.57,-0.31,23.55,16.54,1.33,0.10,-0.01,0.28,1012.74
4.425,-0.72,0.24,-0.15,23.55,16.54,1.33,0.10,-0.01,0.28,1012.74
4.426,-0.72,0.24,-0.15,23.06,16.33,1.34,0.10,-0.01,0.28,1012.74
4.463,-0.72,0.24,-0.15,23.06,16.33,1.34,-0.08,1.09,-1.31,1012.74
4.464,-0.46,0.63,-0.67,23.06,16.33,1.34,-0.08,1.09,-1.31,1012.74
4.465,0.73,1.23,-0.71,23.06,16.33,1.34,-0.08,1.09,-1.31,1012.74
4.465,0.73,1.23,-0.71,-5.53,-2.17,-0.85,-0.08,1.09,-1.31,1012.74
4.468,0.73,1.23,-0.71,-5.53,-2.17,-0.85,-0.08,1.09,-1.31,1012.73
4.502,0.73,1.23,-0.71,-5.53,-2.17,-0.85,-0.26,-0.27,-0.53,1012.73
4.505,0.73,1.23,-0.71,-5.21,-2.26,-0.89,-0.26,-0.27,-0.53,1012.73
4.506,0.89,1.09,-0.47,-5.21,-2.26,-0.89,-0.26,-0.27,-0.53,1012.73
4.507,0.21,0.70,-0.32,-5.21,-2.26,-0.89,-0.26,-0.27,-0.53,1012.73
4.528,0.21,0.70,-0.32,-5.21,-2.26,-0.89,-0.26,-0.27,-0.53,1012.72
4.546,0.21,0.70,-0.32,-5.21,-2.26,-0.89,-0.35,0.39,-0.97,1012.72
4.546,-0.06,0.76,-0.53,-5.21,-2.26,-0.89,-0.35,0.39,-0.97,1012.72
4.547,0.33,0.97,-0.52,-5.21,-2.26,-0.89,-0.35,0.39,-0.97,1012.72
4.547,0.33,0.97,-0.52,-0.04,-0.97,-0.37,-0.35,0.39,-0.97,1012.72
4.582,0.33,0.97,-0.52,-0.04,-0.97,-0.37,-0.37,0.40,-0.92,1012.72
4.584,0.30,0.87,-0.31,-0.04,-0.97,-0.37,-0.37,0.40,-0.92,1012.72
4.584,-0.04,0.83,-0.38,-0.04,-0.97,-0.37,-0.37,0.40,-0.92,1012.72
4.585,-0.04,0.83,-0.38,-1.24,-0.73,-0.20,-0.37,0.40,-0.92,1012.72
4.588,-0.04,0.83,-0.38,-1.24,-0.73,-0.20,-0.37,0.40,-0.92,1012.72
4.628,-0.04,0.83,-0.38,-1.24,-0.73,-0.20,-0.37,0.27,-0.77,1012.72
4.631,-0.02,0.93,-0.47,-1.24,-0.73,-0.20,-0.37,0.27,-0.77,1012.72
4.631,0.06,0.87,-0.40,-1.24,-0.73,-0.20,-0.37,0.27,-0.77,1012.72
4.632,0.06,0.87,-0.40,-0.97,-0.86,-0.36,-0.37,0.27,-0.77,1012.72
4.654,0.06,0.87,-0.40,-0.97,-0.86,-0.36,-0.37,0.27,-0.77,1012.74
4.661,0.06,0.87,-0.40,-0.97,-0.86,-0.36,-0.36,0.20,-0.54,1012.74
4.661,-0.02,0.80,-0.32,-0.97,-0.86,-0.36,-0.36,0.20,-0.54,1012.74
4.662,-0.09,0.84,-0.29,-0.97,-0.86,-0.36,-0.36,0.20,-0.54,1012.74
4.662,-0.09,0.84,-0.29,-2.61,-1.17,-0.46,-0.36,0.20,-0.54,1012.74
4.702,-0.09,0.84,-0.29,-2.61,-1.17,-0.46,-0.25,0.02,-0.23,1012.74
4.705,-0.06,0.90,-0.26,-2.61,-1.17,-0.46,-0.25,0.02,-0.23,1012.74
4.706,-0.06,0.89,-0.23,-2.61,-1.17,-0.46,-0.25,0.02,-0.23,1012.74
4.708,-0.06,0.89,-0.23,-3.19,-1.13,0.74,-0.25,0.02,-0.23,1012.74
4.709,-0.06,0.89,-0.23,-3.19,-1.13,0.74,-0.25,0.02,-0.23,1012.75
4.742,-0.06,0.89,-0.23,-3.19,-1.13,0.74,-0.07,-0.10,0.14,1012.75
4.744,-0.06,0.85,-0.27,-3.19,-1.13,0.74,-0.07,-0.10,0.14,1012.75
4.745,0.06,0.93,-0.38,-3.19,-1.13,0.74,-0.07,-0.10,0.14,1012.75
4.745,0.06,0.93,-0.38,-3.18,-1.11,0.71,-0.07,-0.10,0.14,1012.75
4.77,0.06,0.93,-0.38,-3.18,-1.11,0.71,-0.07,-0.10,0.14,1012.76
4.78,0.06,0.93,-0.38,-3.18,-1.11,0.71,-0.02,-0.15,0.36,1012.76
4.781,0.21,1.03,-0.35,-3.18,-1.11,0.71,-0.02,-0.15,0.36,1012.76
4.782,0.07,0.93,-0.33,-3.18,-1.11,0.71,-0.02,-0.15,0.36,1012.76
4.782,0.07,0.93,-0.33,-1.87,-0.44,-0.01,-0.02,-0.15,0.36,1012.76
4.82,0.07,0.93,-0.33,-1.87,-0.44,-0.01,-0.06,-0.10,0.34,1012.76
4.823,0.09,0.97,-0.46,-1.87,-0.44,-0.01,-0.06,-0.10,0.34,1012.76
4.825,0.35,1.13,-0.49,-1.87,-0.44,-0.01,-0.06,-0.10,0.34,1012.76
4.827,0.35,1.13,-0.49,-1.02,0.28,-0.87,-0.06,-0.10,0.34,1012.76
4.829,0.35,1.13,-0.49,-1.02,0.28,-0.87,-0.06,-0.10,0.34,1012.76
4.859,0.35,1.13,-0.49,-1.02,0.28,-0.87,-0.26,-0.08,0.26,1012.76
4.861,0.35,1.11,-0.55,-1.02,0.28,-0.87,-0.26,-0.08,0.26,1012.76
4.861,0.27,1.13,-0.54,-1.02,0.28,-0.87,-0.26,-0.08,0.26,1012.76
4.862,0.27,1.13,-0.54,-1.09,0.27,-0.94,-0.26,-0.08,0.26,1012.76
4.888,0.27,1.13,-0.54,-1.09,0.27,-0.94,-0.26,-0.08,0.26,1012.75
4.898,0.27,1.13,-0.54,-1.09,0.27,-0.94,-0.48,0.44,-0.03,1012.75
4.9,0.33,1.36,-0.46,-1.09,0.27,-0.94,-0.48,0.44,-0.03,1012.75
4.901,0.29,1.64,-0.28,-1.09,0.27,-0.94,-0.48,0.44,-0.03,1012.75
4.902,0.29,1.64,-0.28,0.32,2.03,-2.01,-0.48,0.44,-0.03,1012.75
4.938,0.29,1.64,-0.28,0.32,2.03,-2.01,-0.70,0.48,-0.21,1012.75
4.939,-0.06,1.74,-0.26,0.32,2.03,-2.01,-0.70,0.48,-0.21,1012.75
4.94,-0.48,1.69,0.05,0.32,2.03,-2.01,-0.70,0.48,-0.21,1012.75
4.941,-0.48,1.69,0.05,-3.52,6.64,1.05,-0.70,0.48,-0.21,1012.75
4.948,-0.48,1.69,0.05,-3.52,6.64,1.05,-0.70,0.48,-0.21,1012.73
4.977,-0.48,1.69,0.05,-3.52,6.64,1.05,-0.56,0.42,0.32,1012.73
4.978,-0.48,1.69,0.05,-3.63,6.50,0.78,-0.56,0.42,0.32,1012.73
4.979,-0.53,1.42,-0.11,-3.63,6.50,0.78,-0.56,0.42,0.32,1012.73
4.98,-0.38,1.21,-0.20,-3.63,6.50,0.78,-0.56,0.42,0.32,1012.73
5.009,-0.38,1.21,-0.20,-3.63,6.50,0.78,-0.56,0.42,0.32,1012.73
5.018,-0.38,1.21,-0.20,-3.63,6.50,0.78,0.22,0.15,1.83,1012.73
5.02,-0.38,1.21,-0.20,-6.68,3.74,-0.54,0.22,0.15,1.83,1012.73
5.022,-0.08,1.54,-0.61,-6.68,3.74,-0.54,0.22,0.15,1.83,1012.73
5.024,0.37,1.75,-0.78,-6.68,3.74,-0.54,0.22,0.15,1.83,1012.73
5.061,0.37,1.75,-0.78,-6.68,3.74,-0.54,0.91,-0.38,3.39,1012.73
5.062,0.64,1.63,-0.38,-6.68,3.74,-0.54,0.91,-0.38,3.39,1012.73
5.063,0.85,1.46,-0.49,-6.68,3.74,-0.54,0.91,-0.38,3.39,1012.73
5.064,0.85,1.46,-0.49,1.35,6.44,-2.47,0.91,-0.38,3.39,1012.73
5.067,0.85,1.46,-0.49,1.35,6.44,-2.47,0.91,-0.38,3.39,1012.73
5.099,0.85,1.46,-0.49,1.35,6.44,-2.47,1.00,1.66,3.12,1012.73
5.102,0.93,1.31,-0.37,1.35,6.44,-2.47,1.00,1.66,3.12,1012.73
5.103,0.62,1.29,-0.40,1.35,6.44,-2.47,1.00,1.66,3.12,1012.73
5.104,0.62,1.29,-0.40,0.05,7.09,-2.43,1.00,1.66,3.12,1012.73
5.13,0.62,1.29,-0.40,0.05,7.09,-2.43,1.00,1.66,3.12,1012.73
5.135,0.62,1.29,-0.40,0.05,7.09,-2.43,0.69,2.97,2.36,1012.73
5.137,0.62,1.29,-0.40,-1.25,4.37,-1.22,0.69,2.97,2.36,1012.73
5.139,0.23,1.22,-0.35,-1.25,4.37,-1.22,0.69,2.97,2.36,1012.73
5.141,0.15,1.05,-0.22,-1.25,4.37,-1.22,0.69,2.97,2.36,1012.73
5.175,0.15,1.05,-0.22,-1.25,4.37,-1.22,0.32,1.48,2.28,1012.73
5.177,0.19,0.84,-0.15,-1.25,4.37,-1.22,0.32,1.48,2.28,1012.73
5.178,0.14,0.66,-0.13,-1.25,4.37,-1.22,0.32,1.48,2.28,1012.73
5.18,0.14,0.66,-0.13,-6.22,0.92,0.47,0.32,1.48,2.28,1012.73
5.188,0.14,0.66,-0.13,-6.22,0.92,0.47,0.32,1.48,2.28,1012.72
5.216,0.14,0.66,-0.13,-6.22,0.92,0.47,0.36,-0.30,1.77,1012.72
5.219,0.06,0.55,-0.12,-6.22,0.92,0.47,0.36,-0.30,1.77,1012.72
5.221,0.08,0.54,-0.12,-6.22,0.92,0.47,0.36,-0.30,1.77,1012.72
5.222,0.08,0.54,-0.12,-6.58,1.48,0.66,0.36,-0.30,1.77,1012.72
5.264,0.08,0.54,-0.12,-6.58,1.48,0.66,0.36,-0.30,1.77,1012.71
5.266,0.08,0.54,-0.12,-6.58,1.48,0.66,0.36,-0.82,0.79,1012.71
5.267,0.08,0.54,-0.12,-7.13,-1.47,1.49,0.36,-0.82,0.79,1012.71
5.268,0.18,0.46,-0.10,-7.13,-1.47,1.49,0.36,-0.82,0.79,1012.71
5.27,0.21,0.27,-0.07,-7.13,-1.47,1.49,0.36,-0.82,0.79,1012.71
5.298,0.21,0.27,-0.07,-7.13,-1.47,1.49,0.20,-0.30,-0.59,1012.71
5.3,0.14,0.09,-0.08,-7.13,-1.47,1.49,0.20,-0.30,-0.59,1012.71
5.3,-0.01,-0.03,-0.10,-7.13,-1.47,1.49,0.20,-0.30,-0.59,1012.71
5.301,-0.01,-0.03,-0.10,-6.72,-5.54,1.96,0.20,-0.30,-0.59,1012.71
5.311,-0.01,-0.03,-0.10,-6.72,-5.54,1.96,0.20,-0.30,-0.59,1012.71
5.333,-0.01,-0.03,-0.10,-6.03,-6.02,2.10,0.20,-0.30,-0.59,1012.71
5.334,-0.01,-0.03,-0.10,-6.03,-6.02,2.10,0.17,-0.42,-2.02,1012.71
5.334,-0.10,-0.11,-0.15,-6.03,-6.02,2.10,0.17,-0.42,-2.02,1012.71
5.335,-0.01,-0.13,-0.23,-6.03,-6.02,2.10,0.17,-0.42,-2.02,1012.71
5.367,-0.01,-0.13,-0.23,-6.03,-6.02,2.10,0.17,-0.42,-2.02,1012.69
5.376,-0.01,-0.13,-0.23,-6.03,-6.02,2.10,0.29,-1.41,-2.98,1012.69
5.377,-0.01,-0.13,-0.23,-5.71,-8.80,1.37,0.29,-1.41,-2.98,1012.69
5.378,0.20,-0.10,-0.22,-5.71,-8.80,1.37,0.29,-1.41,-2.98,1012.69
5.379,0.47,-0.07,-0.30,-5.71,-8.80,1.37,0.29,-1.41,-2.98,1012.69
5.412,0.47,-0.07,-0.30,-5.71,-8.80,1.37,0.38,-1.06,-3.53,1012.69
5.414,0.75,-0.04,-0.37,-5.71,-8.80,1.37,0.38,-1.06,-3.53,1012.69
5.414,1.00,-0.10,-0.29,-5.71,-8.80,1.37,0.38,-1.06,-3.53,1012.69
5.415,1.00,-0.10,-0.29,2.42,-8.92,0.49,0.38,-1.06,-3.53,1012.69
5.428,1.00,-0.10,-0.29,2.42,-8.92,0.49,0.38,-1.06,-3.53,1012.67
5.461,1.00,-0.10,-0.29,2.42,-8.92,0.49,0.42,0.60,-3.22,1012.67
5.463,1.00,-0.10,-0.29,3.35,-9.24,0.53,0.42,0.60,-3.22,1012.67
5.463,1.10,-0.07,-0.23,3.35,-9.24,0.53,0.42,0.60,-3.22,1012.67
5.464,1.01,0.00,-0.11,3.35,-9.24,0.53,0.42,0.60,-3.22,1012.67
5.49,1.01,0.00,-0.11,3.35,-9.24,0.53,0.42,0.60,-3.22,1012.68
5.493,1.01,0.00,-0.11,3.35,-9.24,0.53,0.84,0.91,-2.03,1012.68
5.494,0.97,-0.25,-0.02,3.35,-9.24,0.53,0.84,0.91,-2.03,1012.68
5.495,1.72,-1.02,-1.26,3.35,-9.24,0.53,0.84,0.91,-2.03,1012.68
5.496,1.72,-1.02,-1.26,6.63,-9.59,2.62,0.84,0.91,-2.03,1012.68
5.531,1.72,-1.02,-1.26,6.63,-9.59,2.62,1.04,0.70,0.21,1012.68
5.535,2.98,3.58,0.06,6.63,-9.59,2.62,1.04,0.70,0.21,1012.68
5.537,0.66,4.77,0.23,6.63,-9.59,2.62,1.04,0.70,0.21,1012.68
5.539,0.66,4.77,0.23,13.66,15.34,0.87,1.04,0.70,0.21,1012.68
5.563,0.66,4.77,0.23,13.66,15.34,0.87,1.04,0.70,0.21,1012.68
5.571,0.66,4.77,0.23,13.66,15.34,0.87,-0.19,0.49,-0.92,1012.68
5.572,-2.48,0.38,-2.34,13.66,15.34,0.87,-0.19,0.49,-0.92,1012.68
5.573,-1.33,-1.51,-0.43,13.66,15.34,0.87,-0.19,0.49,-0.92,1012.68
5.575,-1.33,-1.51,-0.43,13.67,14.92,0.72,-0.19,0.49,-0.92,1012.68
5.607,-1.33,-1.51,-0.43,13.67,14.92,0.72,-0.19,0.49,-0.92,1012.69
5.609,-1.33,-1.51,-0.43,13.67,14.92,0.72,-0.07,-1.98,0.94,1012.69
5.61,2.11,-0.35,0.88,13.67,14.92,0.72,-0.07,-1.98,0.94,1012.69
5.61,2.51,3.05,-0.94,13.67,14.92,0.72,-0.07,-1.98,0.94,1012.69
5.611,2.51,3.05,-0.94,-9.23,-13.51,-1.99,-0.07,-1.98,0.94,1012.69
5.648,2.51,3.05,-0.94,-9.23,-13.51,-1.99,0.17,0.88,-0.41,1012.69
5.649,0.65,1.33,-1.45,-9.23,-13.51,-1.99,0.17,0.88,-0.41,1012.69
5.65,-0.66,-0.02,0.23,-9.23,-13.51,-1.99,0.17,0.88,-0.41,1012.69
5.65,-0.66,-0.02,0.23,4.39,5.45,-2.87,0.17,0.88,-0.41,1012.69
5.666,-0.66,-0.02,0.23,4.39,5.45,-2.87,0.17,0.88,-0.41,1012.68
5.688,-0.66,-0.02,0.23,4.39,5.45,-2.87,-0.21,0.61,-1.10,1012.68
5.69,-0.27,0.61,-0.82,4.39,5.45,-2.87,-0.21,0.61,-1.10,1012.68
5.69,0.57,1.46,-0.74,4.39,5.45,-2.87,-0.21,0.61,-1.10,1012.68
5.69,0.57,1.46,-0.74,4.60,5.17,-2.99,-0.21,0.61,-1.10,1012.68
5.728,0.57,1.46,-0.74,4.60,5.17,-2.99,-0.21,0.61,-1.10,1012.68
5.731,0.57,1.46,-0.74,4.60,5.17,-2.99,-0.43,-0.43,-0.41,1012.68
5.733,0.96,1.17,-0.56,4.60,5.17,-2.99,-0.43,-0.43,-0.41,1012.68
5.735,0.32,0.56,-0.30,4.60,5.17,-2.99,-0.43,-0.43,-0.41,1012.68
5.737,0.32,0.56,-0.30,0.73,1.34,-2.91,-0.43,-0.43,-0.41,1012.68
5.769,0.32,0.56,-0.30,0.73,1.34,-2.91,-0.62,0.61,-0.99,1012.68
5.77,-0.08,0.72,-0.49,0.73,1.34,-2.91,-0.62,0.61,-0.99,1012.68
5.771,0.06,1.04,-0.49,0.73,1.34,-2.91,-0.62,0.61,-0.99,1012.68
5.771,0.06,1.04,-0.49,-2.05,-1.82,-0.45,-0.62,0.61,-0.99,1012.68
5.798,0.06,1.04,-0.49,-2.05,-1.82,-0.45,-0.62,0.61,-0.99,1012.68
5.809,0.06,1.04,-0.49,-2.05,-1.82,-0.45,-0.59,0.16,-0.80,1012.68
5.811,0.04,0.94,-0.32,-2.05,-1.82,-0.45,-0.59,0.16,-0.80,1012.68
5.812,0.05,0.83,-0.28,-2.05,-1.82,-0.45,-0.59,0.16,-0.80,1012.68
5.813,0.05,0.83,-0.28,-1.74,-1.96,-0.67,-0.59,0.16,-0.80,1012.68
5.848,0.05,0.83,-0.28,-1.74,-1.96,-0.67,-0.59,0.16,-0.80,1012.67
5.852,0.05,0.83,-0.28,-1.74,-1.96,-0.67,-0.50,0.01,-0.55,1012.67
5.853,0.05,0.83,-0.28,-1.72,-1.15,0.32,-0.50,0.01,-0.55,1012.67
5.854,0.15,0.83,-0.31,-1.72,-1.15,0.32,-0.50,0.01,-0.55,1012.67
5.855,-0.02,0.86,-0.28,-1.72,-1.15,0.32,-0.50,0.01,-0.55,1012.67
5.885,-0.02,0.86,-0.28,-1.72,-1.15,0.32,-0.32,0.40,-0.33,1012.67
5.886,-0.28,0.96,-0.29,-1.72,-1.15,0.32,-0.32,0.40,-0.33,1012.67
5.886,-0.38,0.90,-0.27,-1.72,-1.15,0.32,-0.32,0.40,-0.33,1012.67
5.886,-0.38,0.90,-0.27,-4.60,-0.86,0.38,-0.32,0.40,-0.33,1012.67
5.907,-0.38,0.90,-0.27,-4.60,-0.86,0.38,-0.32,0.40,-0.33,1012.67
5.926,-0.38,0.90,-0.27,-4.62,-0.83,0.32,-0.32,0.40,-0.33,1012.67
5.927,-0.38,0.90,-0.27,-4.62,-0.83,0.32,-0.15,-0.08,0.29,1012.67
5.928,-0.15,0.85,-0.24,-4.62,-0.83,0.32,-0.15,-0.08,0.29,1012.67
5.928,0.06,0.90,-0.18,-4.62,-0.83,0.32,-0.15,-0.08,0.29,1012.67
5.966,0.06,0.90,-0.18,-4.62,-0.83,0.32,0.05,-0.19,0.74,1012.67
5.967,0.06,0.90,-0.18,-2.57,-0.92,0.89,0.05,-0.19,0.74,1012.67
5.967,0.10,0.90,-0.26,-2.57,-0.92,0.89,0.05,-0.19,0.74,1012.67
5.968,0.12,1.00,-0.28,-2.57,-0.92,0.89,0.05,-0.19,0.74,1012.67
5.969,0.12,1.00,-0.28,-2.57,-0.92,0.89,0.05,-0.19,0.74,1012.67
6.005,0.12,1.00,-0.28,-2.57,-0.92,0.89,0.19,0.14,0.82,1012.67
6.008,0.13,1.03,-0.34,-2.57,-0.92,0.89,0.19,0.14,0.82,1012.67
6.009,0.22,0.90,-0.48,-2.57,-0.92,0.89,0.19,0.14,0.82,1012.67
6.01,0.22,0.90,-0.48,-1.36,0.08,-0.45,0.19,0.14,0.82,1012.67
6.027,0.22,0.90,-0.48,-1.36,0.08,-0.45,0.19,0.14,0.82,1012.66
6.047,0.22,0.90,-0.48,-1.63,0.19,-0.39,0.19,0.14,0.82,1012.66
6.05,0.22,0.90,-0.48,-1.63,0.19,-0.39,0.16,0.06,0.78,1012.66
6.052,0.59,0.92,-0.48,-1.63,0.19,-0.39,0.16,0.06,0.78,1012.66
6.054,0.74,1.09,-0.50,-1.63,0.19,-0.39,0.16,0.06,0.78,1012.66
6.083,0.74,1.09,-0.50,-1.63,0.19,-0.39,-0.05,0.51,0.19,1012.66
6.085,0.54,1.26,-0.54,-1.63,0.19,-0.39,-0.05,0.51,0.19,1012.66
6.086,0.39,1.42,-0.41,-1.63,0.19,-0.39,-0.05,0.51,0.19,1012.66
6.086,0.39,1.42,-0.41,2.78,1.31,-1.81,-0.05,0.51,0.19,1012.66
6.087,0.39,1.42,-0.41,2.78,1.31,-1.81,-0.05,0.51,0.19,1012.66
6.123,0.39,1.42,-0.41,2.78,1.31,-1.81,-0.42,0.67,-0.22,1012.66
6.126,0.39,1.42,-0.41,0.25,4.80,-0.37,-0.42,0.67,-0.22,1012.66
6.126,0.35,1.43,-0.34,0.25,4.80,-0.37,-0.42,0.67,-0.22,1012.66
6.127,0.36,1.53,-0.25,0.25,4.80,-0.37,-0.42,0.67,-0.22,1012.66
6.147,0.36,1.53,-0.25,0.25,4.80,-0.37,-0.42,0.67,-0.22,1012.67
6.182,0.36,1.53,-0.25,0.25,4.80,-0.37,-0.57,0.49,-0.40,1012.67
6.184,0.36,1.74,-0.19,0.25,4.80,-0.37,-0.57,0.49,-0.40,1012.67
6.186,-0.21,1.46,-0.09,0.25,4.80,-0.37,-0.57,0.49,-0.40,1012.67
6.186,-0.21,1.46,-0.09,0.35,4.61,-0.63,-0.57,0.49,-0.40,1012.67
6.224,-0.21,1.46,-0.09,-4.67,4.11,0.73,-0.57,0.49,-0.40,1012.67
6.227,-0.21,1.46,-0.09,-4.67,4.11,0.73,-0.51,0.91,-0.34,1012.67
6.229,-0.62,1.09,-0.21,-4.67,4.11,0.73,-0.51,0.91,-0.34,1012.67
6.231,-0.56,0.91,-0.37,-4.67,4.11,0.73,-0.51,0.91,-0.34,1012.67
6.233,-0.56,0.91,-0.37,-4.67,4.11,0.73,-0.51,0.91,-0.34,1012.68
6.243,-0.56,0.91,-0.37,-4.67,4.11,0.73,0.02,0.85,1.25,1012.68
6.246,-0.37,1.04,-0.40,-4.67,4.11,0.73,0.02,0.85,1.25,1012.68
6.248,0.31,1.44,-0.40,-4.67,4.11,0.73,0.02,0.85,1.25,1012.68
6.25,0.31,1.44,-0.40,-5.62,1.33,-1.59,0.02,0.85,1.25,1012.68
6.277,0.31,1.44,-0.40,-5.62,1.33,-1.59,0.02,0.85,1.25,1012.68
6.282,0.31,1.44,-0.40,-6.79,1.97,-1.22,0.02,0.85,1.25,1012.68
6.284,0.31,1.44,-0.40,-6.79,1.97,-1.22,1.14,0.46,3.34,1012.68
6.284,1.22,1.54,-0.39,-6.79,1.97,-1.22,1.14,0.46,3.34,1012.68
6.285,1.17,1.45,-0.54,-6.79,1.97,-1.22,1.14,0.46,3.34,1012.68
6.32,1.17,1.45,-0.54,-6.79,1.97,-1.22,1.49,2.93,2.81,1012.68
6.322,0.50,1.31,-0.47,-6.79,1.97,-1.22,1.49,2.93,2.81,1012.68
6.322,0.47,1.21,-0.46,-6.79,1.97,-1.22,1.49,2.93,2.81,1012.68
6.323,0.47,1.21,-0.46,3.38,5.59,-2.06,1.49,2.93,2.81,1012.68
6.325,0.47,1.21,-0.46,3.38,5.59,-2.06,1.49,2.93,2.81,1012.67
6.37,0.47,1.21,-0.46,3.38,5.59,-2.06,1.26,3.81,2.51,1012.67
6.373,0.63,1.10,-0.18,3.38,5.59,-2.06,1.26,3.81,2.51,1012.67
6.375,0.58,0.90,-0.01,3.38,5.59,-2.06,1.26,3.81,2.51,1012.67
6.376,0.58,0.90,-0.01,-1.71,2.73,-0.21,1.26,3.81,2.51,1012.67
6.386,0.58,0.90,-0.01,-1.71,2.73,-0.21,1.26,3.81,2.51,1012.66
6.401,0.58,0.90,-0.01,-1.71,2.73,-0.21,1.27,2.97,2.05,1012.66
6.404,0.41,0.69,0.01,-1.71,2.73,-0.21,1.27,2.97,2.05,1012.66
6.407,0.31,0.55,0.11,-1.71,2.73,-0.21,1.27,2.97,2.05,1012.66
6.408,0.31,0.55,0.11,-2.46,3.38,-0.72,1.27,2.97,2.05,1012.66
6.461,0.31,0.55,0.11,-2.46,3.38,-0.72,1.68,1.79,1.37,1012.66
6.462,0.33,0.52,0.09,-2.46,3.38,-0.72,1.68,1.79,1.37,1012.66
6.463,0.35,0.60,0.12,-2.46,3.38,-0.72,1.68,1.79,1.37,1012.66
6.463,0.35,0.60,0.12,-4.92,-0.80,1.97,1.68,1.79,1.37,1012.66
6.464,0.35,0.60,0.12,-4.92,-0.80,1.97,1.68,1.79,1.37,1012.65
6.503,0.35,0.60,0.12,-4.92,-0.80,1.97,2.08,0.84,0.53,1012.65
6.505,0.39,0.72,0.11,-4.92,-0.80,1.97,2.08,0.84,0.53,1012.65
6.506,0.44,0.81,0.12,-4.92,-0.80,1.97,2.08,0.84,0.53,1012.65
6.507,0.44,0.81,0.12,-4.59,0.67,2.60,2.08,0.84,0.53,1012.65
6.508,0.44,0.81,0.12,-4.59,0.67,2.60,2.08,0.84,0.53,1012.65
6.518,0.44,0.81,0.12,-4.59,0.67,2.60,2.07,0.75,-0.45,1012.65
6.52,0.44,0.81,0.12,-4.45,0.64,2.81,2.07,0.75,-0.45,1012.65
6.521,0.48,0.72,0.17,-4.45,0.64,2.81,2.07,0.75,-0.45,1012.65
6.521,0.49,0.54,0.15,-4.45,0.64,2.81,2.07,0.75,-0.45,1012.65
6.558,0.49,0.54,0.15,-4.45,0.64,2.81,1.96,1.20,-1.52,1012.65
6.56,0.45,0.47,0.15,-4.45,0.64,2.81,1.96,1.20,-1.52,1012.65
6.562,0.29,0.47,0.11,-4.45,0.64,2.81,1.96,1.20,-1.52,1012.65
6.562,0.29,0.47,0.11,-3.31,-1.02,3.26,1.96,1.20,-1.52,1012.65
6.566,0.29,0.47,0.11,-3.31,-1.02,3.26,1.96,1.20,-1.52,1012.64
6.599,0.29,0.47,0.11,-3.31,-1.02,3.26,1.86,1.06,-2.55,1012.64
6.602,0.29,0.47,0.11,-5.34,-3.08,2.67,1.86,1.06,-2.55,1012.64
6.603,0.14,0.44,0.06,-5.34,-3.08,2.67,1.86,1.06,-2.55,1012.64
6.604,0.15,0.36,0.07,-5.34,-3.08,2.67,1.86,1.06,-2.55,1012.64
6.627,0.15,0.36,0.07,-5.34,-3.08,2.67,1.86,1.06,-2.55,1012.64
6.638,0.15,0.36,0.07,-5.34,-3.08,2.67,1.75,0.21,-3.30,1012.64
6.641,0.15,0.36,0.07,-4.29,-3.75,3.08,1.75,0.21,-3.30,1012.64
6.643,0.22,0.35,0.05,-4.29,-3.75,3.08,1.75,0.21,-3.30,1012.64
6.645,0.22,0.38,-0.01,-4.29,-3.75,3.08,1.75,0.21,-3.30,1012.64
6.681,0.22,0.38,-0.01,-4.29,-3.75,3.08,1.64,-0.10,-3.87,1012.64
6.682,0.22,0.38,-0.01,-2.65,-4.95,2.73,1.64,-0.10,-3.87,1012.64
6.683,0.23,0.35,-0.06,-2.65,-4.95,2.73,1.64,-0.10,-3.87,1012.64
6.684,0.31,0.31,-0.04,-2.65,-4.95,2.73,1.64,-0.10,-3.87,1012.64
6.686,0.31,0.31,-0.04,-2.65,-4.95,2.73,1.64,-0.10,-3.87,1012.62
6.716,0.31,0.31,-0.04,-2.65,-4.95,2.73,1.54,0.40,-4.20,1012.62
6.717,0.44,0.33,-0.09,-2.65,-4.95,2.73,1.54,0.40,-4.20,1012.62
6.718,0.54,0.38,-0.07,-2.65,-4.95,2.73,1.54,0.40,-4.20,1012.62
6.719,0.54,0.38,-0.07,0.75,-5.57,2.55,1.54,0.40,-4.20,1012.62
6.754,0.54,0.38,-0.07,0.75,-5.57,2.55,1.54,0.40,-4.20,1012.60
6.79,0.54,0.38,-0.07,2.01,-5.75,2.83,1.54,0.40,-4.20,1012.60
6.791,0.54,0.38,-0.07,2.01,-5.75,2.83,1.40,1.66,-4.23,1012.60
6.792,0.53,0.45,-0.05,2.01,-5.75,2.83,1.40,1.66,-4.23,1012.60
6.793,0.47,0.51,-0.09,2.01,-5.75,2.83,1.40,1.66,-4.23,1012.60
6.795,0.47,0.51,-0.09,2.01,-5.75,2.83,1.31,1.79,-3.44,1012.60
6.796,0.53,0.50,-0.02,2.01,-5.75,2.83,1.31,1.79,-3.44,1012.60
6.796,0.77,0.49,-0.03,2.01,-5.75,2.83,1.31,1.79,-3.44,1012.60
6.797,0.77,0.49,-0.03,3.70,-4.32,3.28,1.31,1.79,-3.44,1012.60
6.805,0.77,0.49,-0.03,3.70,-4.32,3.28,1.31,1.79,-3.44,1012.60
6.835,0.77,0.49,-0.03,3.70,-4.32,3.28,1.05,1.19,-1.99,1012.60
6.836,1.01,0.56,-0.06,3.70,-4.32,3.28,1.05,1.19,-1.99,1012.60
6.837,1.06,0.47,0.11,3.70,-4.32,3.28,1.05,1.19,-1.99,1012.60
6.837,1.06,0.47,0.11,8.39,-3.96,4.09,1.05,1.19,-1.99,1012.60
6.866,1.06,0.47,0.11,8.39,-3.96,4.09,1.05,1.19,-1.99,1012.62
6.919,1.06,0.47,0.11,8.39,-3.96,4.09,0.81,0.99,-0.40,1012.62
6.926,1.06,0.47,0.11,8.23,-3.77,4.26,0.81,0.99,-0.40,1012.62
6.929,0.97,0.24,-0.15,8.23,-3.77,4.26,0.81,0.99,-0.40,1012.62
6.931,1.17,5.02,-2.08,8.23,-3.77,4.26,0.81,0.99,-0.40,1012.62
6.933,1.17,5.02,-2.08,8.23,-3.77,4.26,-0.06,-0.34,1.08,1012.62
6.935,-0.43,3.38,-0.85,8.23,-3.77,4.26,-0.06,-0.34,1.08,1012.62
6.937,-2.03,-2.59,0.75,8.23,-3.77,4.26,-0.06,-0.34,1.08,1012.62
6.939,-2.03,-2.59,0.75,4.12,19.20,-5.74,-0.06,-0.34,1.08,1012.62
6.94,-2.03,-2.59,0.75,4.12,19.20,-5.74,-0.06,-0.34,1.08,1012.63
6.954,-2.03,-2.59,0.75,4.12,19.20,-5.74,0.40,-0.17,0.97,1012.63
6.955,0.39,-2.01,-0.93,4.12,19.20,-5.74,0.40,-0.17,0.97,1012.63
6.955,1.79,2.46,0.37,4.12,19.20,-5.74,0.40,-0.17,0.97,1012.63
6.956,1.79,2.46,0.37,-1.27,-15.60,5.02,0.40,-0.17,0.97,1012.63
6.986,1.79,2.46,0.37,-1.27,-15.60,5.02,0.40,-0.17,0.97,1012.62
7.014,1.79,2.46,0.37,-1.27,-15.60,5.02,0.98,-0.09,1.39,1012.62
7.016,1.68,3.01,-1.92,-1.27,-15.60,5.02,0.98,-0.09,1.39,1012.62
7.018,-0.12,0.10,0.10,-1.27,-15.60,5.02,0.98,-0.09,1.39,1012.62
7.019,-0.12,0.10,0.10,-1.69,-15.06,5.26,0.98,-0.09,1.39,1012.62
7.032,-0.12,0.10,0.10,-1.69,-15.06,5.26,0.35,0.39,-0.29,1012.62
7.034,-0.43,0.05,-0.33,-1.69,-15.06,5.26,0.35,0.39,-0.29,1012.62
7.035,0.73,1.32,-0.95,-1.69,-15.06,5.26,0.35,0.39,-0.29,1012.62
7.035,0.73,1.32,-0.95,1.53,2.23,-2.30,0.35,0.39,-0.29,1012.62
7.046,0.73,1.32,-0.95,1.53,2.23,-2.30,0.35,0.39,-0.29,1012.62
7.077,0.73,1.32,-0.95,1.53,2.23,-2.30,0.35,0.48,0.00,1012.62
7.081,0.73,1.32,-0.95,4.59,2.34,-1.86,0.35,0.48,0.00,1012.62
7.082,1.16,1.27,-0.64,4.59,2.34,-1.86,0.35,0.48,0.00,1012.62
7.082,0.23,0.59,-0.46,4.59,2.34,-1.86,0.35,0.48,0.00,1012.62
7.115,0.23,0.59,-0.46,4.59,2.34,-1.86,0.35,0.48,0.00,1012.63
7.117,0.23,0.59,-0.46,4.59,2.34,-1.86,0.18,0.85,-0.71,1012.63
7.118,0.23,0.59,-0.46,4.58,2.27,-1.85,0.18,0.85,-0.71,1012.63
7.119,-0.17,0.66,-0.69,4.58,2.27,-1.85,0.18,0.85,-0.71,1012.63
7.121,0.23,0.90,-0.74,4.58,2.27,-1.85,0.18,0.85,-0.71,1012.63
7.151,0.23,0.90,-0.74,-0.19,-0.18,-1.92,0.18,0.85,-0.71,1012.63
7.157,0.23,0.90,-0.74,-0.19,-0.18,-1.92,0.02,0.25,-0.61,1012.63
7.158,0.56,0.89,-0.65,-0.19,-0.18,-1.92,0.02,0.25,-0.61,1012.63
7.158,0.35,0.81,-0.66,-0.19,-0.18,-1.92,0.02,0.25,-0.61,1012.63
7.195,0.35,0.81,-0.66,-0.19,-0.18,-1.92,0.02,0.25,-0.61,1012.64
7.197,0.35,0.81,-0.66,-0.19,-0.18,-1.92,-0.27,0.64,-0.87,1012.64
7.198,0.35,0.81,-0.66,-0.97,-0.40,-2.29,-0.27,0.64,-0.87,1012.64
7.2,0.04,0.80,-0.72,-0.97,-0.40,-2.29,-0.27,0.64,-0.87,1012.64
7.201,-0.06,0.81,-0.78,-0.97,-0.40,-2.29,-0.27,0.64,-0.87,1012.64
7.227,-0.06,0.81,-0.78,-0.97,-0.40,-2.29,-0.27,0.64,-0.87,1012.64
7.232,-0.06,0.81,-0.78,-0.97,-0.40,-2.29,-0.59,0.29,-0.76,1012.64
7.234,-0.10,0.83,-0.65,-0.97,-0.40,-2.29,-0.59,0.29,-0.76,1012.64
7.236,-0.04,0.84,-0.60,-0.97,-0.40,-2.29,-0.59,0.29,-0.76,1012.64
7.238,-0.04,0.84,-0.60,-0.76,-0.56,-2.47,-0.59,0.29,-0.76,1012.64
7.278,-0.04,0.84,-0.60,-0.76,-0.56,-2.47,-0.71,0.36,-0.44,1012.64
7.281,0.17,0.84,-0.27,-0.76,-0.56,-2.47,-0.71,0.36,-0.44,1012.64
7.281,0.98,1.01,-0.37,-0.76,-0.56,-2.47,-0.71,0.36,-0.44,1012.64
7.282,0.98,1.01,-0.37,-1.62,-0.38,-0.61,-0.71,0.36,-0.44,1012.64
7.285,0.98,1.01,-0.37,-1.62,-0.38,-0.61,-0.71,0.36,-0.44,1012.63
7.312,0.98,1.01,-0.37,-1.62,-0.38,-0.61,-0.60,0.52,-0.73,1012.63
7.314,-0.85,0.84,-0.82,-1.62,-0.38,-0.61,-0.60,0.52,-0.73,1012.63
7.315,-1.04,0.63,0.20,-1.62,-0.38,-0.61,-0.60,0.52,-0.73,1012.63
7.316,-1.04,0.63,0.20,-4.43,-0.63,0.85,-0.60,0.52,-0.73,1012.63
7.353,-1.04,0.63,0.20,-4.43,-0.63,0.85,-0.60,0.52,-0.73,1012.63
7.354,-1.04,0.63,0.20,-4.43,-0.63,0.85,-0.36,-1.05,0.14,1012.63
7.354,0.45,1.01,-0.63,-4.43,-0.63,0.85,-0.36,-1.05,0.14,1012.63
7.355,0.60,1.07,-0.17,-4.43,-0.63,0.85,-0.36,-1.05,0.14,1012.63
7.355,0.60,1.07,-0.17,-4.24,-0.67,0.77,-0.36,-1.05,0.14,1012.63
7.394,0.60,1.07,-0.17,-4.24,-0.67,0.77,-0.15,0.28,0.25,1012.63
7.395,0.60,1.07,-0.17,2.20,0.58,0.26,-0.15,0.28,0.25,1012.63
7.396,0.06,0.78,-0.32,2.20,0.58,0.26,-0.15,0.28,0.25,1012.63
7.396,-0.17,0.83,-0.29,2.20,0.58,0.26,-0.15,0.28,0.25,1012.63
7.405,-0.17,0.83,-0.29,2.20,0.58,0.26,-0.15,0.28,0.25,1012.64
7.429,-0.17,0.83,-0.29,-3.55,-0.17,0.25,-0.15,0.28,0.25,1012.64
7.431,-0.17,0.83,-0.29,-3.55,-0.17,0.25,0.12,1.11,0.23,1012.64
7.432,-0.27,0.91,-0.37,-3.55,-0.17,0.25,0.12,1.11,0.23,1012.64
7.434,-0.15,0.89,-0.46,-3.55,-0.17,0.25,0.12,1.11,0.23,1012.64
7.479,-0.15,0.89,-0.46,-3.55,-0.17,0.25,0.12,1.11,0.23,1012.64
7.481,-0.15,0.89,-0.46,-3.55,-0.17,0.25,0.23,0.26,0.72,1012.64
7.481,0.25,0.93,-0.34,-3.55,-0.17,0.25,0.23,0.26,0.72,1012.64
7.482,0.30,0.94,-0.40,-3.55,-0.17,0.25,0.23,0.26,0.72,1012.64
7.483,0.30,0.94,-0.40,-3.77,-0.09,0.31,0.23,0.26,0.72,1012.64
7.506,0.30,0.94,-0.40,-3.77,-0.09,0.31,0.31,0.73,0.68,1012.64
7.508,0.19,0.92,-0.63,-3.77,-0.09,0.31,0.31,0.73,0.68,1012.64
7.508,0.18,0.95,-0.57,-3.77,-0.09,0.31,0.31,0.73,0.68,1012.64
7.509,0.18,0.95,-0.57,0.19,0.56,-0.46,0.31,0.73,0.68,1012.64
7.526,0.18,0.95,-0.57,0.19,0.56,-0.46,0.31,0.73,0.68,1012.64
7.547,0.18,0.95,-0.57,0.19,0.56,-0.46,0.30,1.14,0.52,1012.64
7.548,0.15,0.95,-0.70,0.19,0.56,-0.46,0.30,1.14,0.52,1012.64
7.549,0.23,1.09,-0.60,0.19,0.56,-0.46,0.30,1.14,0.52,1012.64
7.55,0.23,1.09,-0.60,-0.72,1.28,-2.07,0.30,1.14,0.52,1012.64
7.584,0.23,1.09,-0.60,-0.72,1.28,-2.07,0.30,1.14,0.52,1012.64
7.587,0.23,1.09,-0.60,-0.72,1.28,-2.07,0.15,1.14,0.43,1012.64
7.587,0.43,1.30,-0.34,-0.72,1.28,-2.07,0.15,1.14,0.43,1012.64
7.588,0.40,1.43,-0.33,-0.72,1.28,-2.07,0.15,1.14,0.43,1012.64
7.589,0.40,1.43,-0.33,-1.03,1.32,-2.10,0.15,1.14,0.43,1012.64
7.627,0.40,1.43,-0.33,0.04,5.02,0.43,0.15,1.14,0.43,1012.64
7.63,0.40,1.43,-0.33,0.04,5.02,0.43,-0.10,0.71,0.33,1012.64
7.632,0.13,1.41,-0.38,0.04,5.02,0.43,-0.10,0.71,0.33,1012.64
7.634,-0.02,1.45,-0.36,0.04,5.02,0.43,-0.10,0.71,0.33,1012.64
7.646,-0.02,1.45,-0.36,0.04,5.02,0.43,-0.10,0.71,0.33,1012.64
7.68,-0.02,1.45,-0.36,0.04,5.02,0.43,-0.04,0.86,0.42,1012.64
7.681,0.09,1.53,-0.29,0.04,5.02,0.43,-0.04,0.86,0.42,1012.64
7.682,0.16,1.42,-0.26,0.04,5.02,0.43,-0.04,0.86,0.42,1012.64
7.683,0.16,1.42,-0.26,-2.55,5.81,0.74,-0.04,0.86,0.42,1012.64
7.71,0.16,1.42,-0.26,-2.55,5.81,0.74,0.32,2.44,0.13,1012.64
7.711,0.16,1.42,-0.26,-2.90,5.77,0.50,0.32,2.44,0.13,1012.64
7.712,0.08,1.18,-0.26,-2.90,5.77,0.50,0.32,2.44,0.13,1012.64
7.712,0.14,1.04,-0.43,-2.90,5.77,0.50,0.32,2.44,0.13,1012.64
7.713,0.14,1.04,-0.43,-2.90,5.77,0.50,0.32,2.44,0.13,1012.63
7.748,0.14,1.04,-0.43,-2.90,5.77,0.50,0.89,3.46,0.06,1012.63
7.75,0.14,1.04,-0.43,-2.02,2.41,-0.91,0.89,3.46,0.06,1012.63
7.751,0.42,1.12,-0.60,-2.02,2.41,-0.91,0.89,3.46,0.06,1012.63
7.751,0.56,1.21,-0.42,-2.02,2.41,-0.91,0.89,3.46,0.06,1012.63
7.773,0.56,1.21,-0.42,-2.02,2.41,-0.91,0.89,3.46,0.06,1012.62
7.782,0.56,1.21,-0.42,-2.02,2.41,-0.91,1.60,3.98,0.40,1012.62
7.783,0.56,1.21,-0.42,1.10,3.25,-1.54,1.60,3.98,0.40,1012.62
7.784,0.58,1.19,-0.40,1.10,3.25,-1.54,1.60,3.98,0.40,1012.62
7.784,0.65,1.13,-0.62,1.10,3.25,-1.54,1.60,3.98,0.40,1012.62
7.823,0.65,1.13,-0.62,1.10,3.25,-1.54,2.10,4.41,0.60,1012.62
7.826,0.48,1.18,-0.48,1.10,3.25,-1.54,2.10,4.41,0.60,1012.62
7.828,0.35,1.28,-0.34,1.10,3.25,-1.54,2.10,4.41,0.60,1012.62
7.83,0.35,1.28,-0.34,0.37,3.56,-1.73,2.10,4.41,0.60,1012.62
7.832,0.35,1.28,-0.34,0.37,3.56,-1.73,2.10,4.41,0.60,1012.63
7.888,0.35,1.28,-0.34,0.37,3.56,-1.73,2.10,4.41,0.60,1012.63
7.91,0.35,1.28,-0.34,0.37,3.56,-1.73,2.11,3.50,0.77,1012.63
7.913,0.35,1.28,-0.34,0.37,3.56,-1.73,1.84,2.89,0.69,1012.63
7.915,0.35,1.28,-0.34,-0.27,3.92,-1.86,1.84,2.89,0.69,1012.63
7.917,0.35,1.28,-0.34,-0.85,4.28,-2.05,1.84,2.89,0.69,1012.63
7.949,0.35,1.28,-0.34,-0.85,4.28,-2.05,1.84,2.89,0.69,1012.61
7.985,0.35,1.28,-0.34,-0.85,4.28,-2.05,1.65,2.43,0.21,1012.61
7.988,0.35,1.28,-0.34,-0.85,4.28,-2.05,1.37,1.60,-0.26,1012.61
7.989,0.35,1.28,-0.34,-1.14,4.43,-2.20,1.37,1.60,-0.26,1012.61
7.991,0.35,1.28,-0.34,-1.20,4.41,-2.23,1.37,1.60,-0.26,1012.61
8.035,0.35,1.28,-0.34,-1.20,4.41,-2.23,1.37,1.60,-0.26,1012.59
8.036,0.35,1.28,-0.34,-1.20,4.41,-2.23,0.93,0.41,-0.75,1012.59
8.037,0.35,1.28,-0.34,-3.41,-2.44,2.72,0.93,0.41,-0.75,1012.59
8.037,0.35,0.48,0.02,-3.41,-2.44,2.72,0.93,0.41,-0.75,1012.59
8.07,0.35,0.48,0.02,-3.41,-2.44,2.72,0.41,-0.28,-1.55,1012.59
8.072,0.41,0.31,0.00,-3.41,-2.44,2.72,0.41,-0.28,-1.55,1012.59
8.073,0.41,0.31,0.00,-2.25,-4.48,2.72,0.41,-0.28,-1.55,1012.59
8.074,0.41,0.31,0.00,-2.25,-4.48,2.72,0.41,-0.28,-1.55,1012.59
8.119,0.41,0.31,0.00,-2.25,-4.48,2.72,-0.09,-0.02,-2.43,1012.59
8.12,0.31,0.24,0.02,-2.25,-4.48,2.72,-0.09,-0.02,-2.43,1012.59
8.121,0.31,0.24,0.02,-2.43,-5.64,2.82,-0.09,-0.02,-2.43,1012.59
8.127,0.31,0.24,0.02,-2.43,-5.64,2.82,-0.09,-0.02,-2.43,1012.58
8.141,0.31,0.24,0.02,-2.43,-5.64,2.82,-0.40,-0.61,-2.97,1012.58
8.143,0.18,0.21,-0.08,-2.43,-5.64,2.82,-0.40,-0.61,-2.97,1012.58
8.145,0.18,0.21,-0.08,-2.63,-6.46,1.77,-0.40,-0.61,-2.97,1012.58
8.181,0.18,0.21,-0.08,-2.63,-6.46,1.77,-0.57,-1.15,-3.13,1012.58
8.183,0.18,0.21,-0.08,2.35,-5.60,1.13,-0.57,-1.15,-3.13,1012.58
8.184,0.57,0.34,-0.14,2.35,-5.60,1.13,-0.57,-1.15,-3.13,1012.58
8.186,0.57,0.34,-0.14,2.35,-5.60,1.13,-0.57,-1.15,-3.13,1012.58
8.222,0.57,0.34,-0.14,2.35,-5.60,1.13,-0.84,-0.03,-3.15,1012.58
8.224,0.63,0.55,-0.19,2.35,-5.60,1.13,-0.84,-0.03,-3.15,1012.58
8.225,0.63,0.55,-0.19,4.00,-3.91,0.41,-0.84,-0.03,-3.15,1012.58
8.247,0.63,0.55,-0.19,4.00,-3.91,0.41,-0.84,-0.03,-3.15,1012.58
8.282,0.63,0.55,-0.19,4.00,-3.91,0.41,-1.21,0.59,-2.63,1012.58
8.284,0.47,0.69,-0.16,4.00,-3.91,0.41,-1.21,0.59,-2.63,1012.58
8.284,0.47,0.69,-0.16,3.32,-2.74,0.19,-1.21,0.59,-2.63,1012.58
8.334,0.47,0.69,-0.16,3.32,-2.74,0.19,-1.41,0.02,-1.75,1012.58
8.336,0.14,0.72,-0.17,3.32,-2.74,0.19,-1.41,0.02,-1.75,1012.58
8.336,0.14,0.72,-0.17,0.71,-2.54,-0.43,-1.41,0.02,-1.75,1012.58
8.337,0.14,0.72,-0.17,0.71,-2.54,-0.43,-1.41,0.02,-1.75,1012.58
8.339,0.14,0.72,-0.17,0.71,-2.54,-0.43,-1.26,-1.81,-0.92,1012.58
8.341,0.12,0.45,-0.22,0.71,-2.54,-0.43,-1.26,-1.81,-0.92,1012.58
8.342,0.12,0.45,-0.22,0.90,-5.23,-1.34,-1.26,-1.81,-0.92,1012.58
8.375,0.12,0.45,-0.22,0.90,-5.23,-1.34,-1.26,-1.81,-0.92,1012.58
8.38,0.12,0.45,-0.22,0.90,-5.23,-1.34,-0.31,-3.19,0.43,1012.58
8.381,1.06,1.66,-0.83,0.90,-5.23,-1.34,-0.31,-3.19,0.43,1012.58
8.382,1.06,1.66,-0.83,9.88,6.61,-7.27,-0.31,-3.19,0.43,1012.58
8.417,1.06,1.66,-0.83,9.88,6.61,-7.27,-1.67,0.92,1.11,1012.58
8.418,0.60,2.24,0.52,9.88,6.61,-7.27,-1.67,0.92,1.11,1012.58
8.42,0.60,2.24,0.52,4.90,12.07,5.14,-1.67,0.92,1.11,1012.58
8.427,0.60,2.24,0.52,4.90,12.07,5.14,-1.67,0.92,1.11,1012.59
8.456,0.60,2.24,0.52,4.90,12.07,5.14,-0.80,2.86,-1.16,1012.59
8.458,-1.38,-0.30,-0.37,4.90,12.07,5.14,-0.80,2.86,-1.16,1012.59
8.458,-1.38,-0.30,-0.37,-13.81,-12.71,-3.87,-0.80,2.86,-1.16,1012.59
8.49,-1.38,-0.30,-0.37,-13.81,-12.71,-3.87,-0.80,2.86,-1.16,1012.60
8.499,-1.38,-0.30,-0.37,3.54,0.23,2.21,-0.80,2.86,-1.16,1012.60
8.5,-1.38,-0.30,-0.37,3.54,0.23,2.21,-0.56,-2.19,0.74,1012.60
8.5,0.43,1.01,0.27,3.54,0.23,2.21,-0.56,-2.19,0.74,1012.60
8.535,0.43,1.01,0.27,3.54,0.23,2.21,-0.64,-1.88,0.87,1012.60
8.537,0.93,1.29,0.31,3.54,0.23,2.21,-0.64,-1.88,0.87,1012.60
8.537,0.93,1.29,0.31,7.95,2.97,2.35,-0.64,-1.88,0.87,1012.60
8.547,0.93,1.29,0.31,7.95,2.97,2.35,-0.64,-1.88,0.87,1012.59
8.609,0.93,1.29,0.31,-3.72,0.17,-0.10,-0.64,-1.88,0.87,1012.59
8.611,0.93,1.29,0.31,-3.72,0.17,-0.10,-0.33,1.61,-0.25,1012.59
8.611,-0.28,1.01,0.08,-3.72,0.17,-0.10,-0.33,1.61,-0.25,1012.59
8.614,-0.28,1.01,0.08,-3.72,0.17,-0.10,-0.33,1.61,-0.25,1012.58
8.615,-0.28,1.01,0.08,-3.72,0.17,-0.10,-0.14,0.99,0.06,1012.58
8.616,-0.24,0.95,0.19,-3.72,0.17,-0.10,-0.14,0.99,0.06,1012.58
8.616,-0.24,0.95,0.19,-3.23,-0.36,0.87,-0.14,0.99,0.06,1012.58
8.653,-0.24,0.95,0.19,-3.23,-0.36,0.87,-0.02,-0.48,0.44,1012.58
8.654,0.20,0.87,0.16,-3.23,-0.36,0.87,-0.02,-0.48,0.44,1012.58
8.655,0.20,0.87,0.16,0.79,-1.14,0.55,-0.02,-0.48,0.44,1012.58
8.666,0.20,0.87,0.16,0.79,-1.14,0.55,-0.02,-0.48,0.44,1012.57
8.693,0.20,0.87,0.16,0.79,-1.14,0.55,0.03,-0.26,0.30,1012.57
8.694,0.20,0.87,0.16,0.39,0.75,-0.20,0.03,-0.26,0.30,1012.57
8.695,0.17,1.06,0.08,0.39,0.75,-0.20,0.03,-0.26,0.30,1012.57
8.725,0.17,1.06,0.08,0.39,0.75,-0.20,0.03,-0.26,0.30,1012.58
8.732,0.17,1.06,0.08,0.39,0.75,-0.20,-0.02,0.12,0.21,1012.58
8.733,0.09,1.03,0.08,0.39,0.75,-0.20,-0.02,0.12,0.21,1012.58
8.733,0.09,1.03,0.08,-0.41,0.39,-0.22,-0.02,0.12,0.21,1012.58
8.773,0.09,1.03,0.08,-0.41,0.39,-0.22,-0.01,0.21,0.23,1012.58
8.774,0.19,0.93,0.14,-0.41,0.39,-0.22,-0.01,0.21,0.23,1012.58
8.775,0.19,0.93,0.14,0.48,-0.51,0.41,-0.01,0.21,0.23,1012.58
8.789,0.19,0.93,0.14,0.48,-0.51,0.41,-0.01,0.21,0.23,1012.58
8.812,0.19,0.93,0.14,0.48,-0.51,0.41,0.03,0.24,0.12,1012.58
8.813,0.15,0.99,0.10,0.48,-0.51,0.41,0.03,0.24,0.12,1012.58
8.814,0.15,0.99,0.10,0.04,0.06,0.01,0.03,0.24,0.12,1012.58
8.849,0.15,0.99,0.10,0.04,0.06,0.01,0.03,0.24,0.12,1012.58
8.852,0.15,0.99,0.10,0.04,0.06,0.01,0.03,0.22,0.09,1012.58
8.854,0.09,1.00,0.08,0.04,0.06,0.01,0.03,0.22,0.09,1012.58
8.856,0.09,1.00,0.08,-0.60,0.20,-0.24,0.03,0.22,0.09,1012.58
8.899,0.09,1.00,0.08,-0.60,0.20,-0.24,0.01,0.05,0.13,1012.58
8.903,0.16,0.96,0.10,-0.60,0.20,-0.24,0.01,0.05,0.13,1012.58
8.904,0.16,0.96,0.10,0.04,-0.22,0.02,0.01,0.05,0.13,1012.58
8.909,0.16,0.96,0.10,0.04,-0.22,0.02,0.01,0.05,0.13,1012.58
8.933,0.16,0.96,0.10,0.04,-0.22,0.02,0.01,0.07,0.07,1012.58
8.935,0.17,0.98,0.09,0.04,-0.22,0.02,0.01,0.07,0.07,1012.58
8.936,0.17,0.98,0.09,0.12,-0.06,-0.10,0.01,0.07,0.07,1012.58
8.978,0.17,0.98,0.09,0.12,-0.06,-0.10,0.01,0.07,0.07,1012.58
8.98,0.17,0.98,0.09,0.12,-0.06,-0.10,-0.01,0.15,0.04,1012.58
8.98,0.09,0.99,0.09,0.12,-0.06,-0.10,-0.01,0.15,0.04,1012.58
8.981,0.09,0.99,0.09,-0.64,0.07,-0.16,-0.01,0.15,0.04,1012.58
9.016,0.09,0.99,0.09,-0.64,0.07,-0.16,-0.01,0.06,0.07,1012.58
9.019,0.15,0.98,0.09,-0.64,0.07,-0.16,-0.01,0.06,0.07,1012.58
9.021,0.15,0.98,0.09,-0.08,0.01,-0.11,-0.01,0.06,0.07,1012.58
9.029,0.15,0.98,0.09,-0.08,0.01,-0.11,-0.01,0.06,0.07,1012.59
9.049,0.15,0.98,0.09,-0.08,0.01,-0.11,-0.02,0.08,0.04,1012.59
9.05,0.15,0.97,0.10,-0.08,0.01,-0.11,-0.02,0.08,0.04,1012.59
9.051,0.15,0.97,0.10,-0.15,-0.14,-0.05,-0.02,0.08,0.04,1012.59
9.094,0.15,0.97,0.10,-0.15,-0.14,-0.05,-0.02,0.08,0.04,1012.59
9.099,0.15,0.97,0.10,-0.15,-0.14,-0.05,-0.03,0.05,0.01,1012.59
9.1,0.15,0.97,0.10,-0.17,0.06,-0.13,-0.03,0.05,0.01,1012.59
9.1,0.14,0.99,0.09,-0.17,0.06,-0.13,-0.03,0.05,0.01,1012.59
9.134,0.14,0.99,0.09,-0.17,0.06,-0.13,-0.04,0.03,-0.01,1012.59
9.136,0.14,0.98,0.11,-0.17,0.06,-0.13,-0.04,0.03,-0.01,1012.59
9.136,0.14,0.98,0.11,-0.24,0.01,0.03,-0.04,0.03,-0.01,1012.59
9.145,0.14,0.98,0.11,-0.24,0.01,0.03,-0.04,0.03,-0.01,1012.59
9.169,0.14,0.98,0.11,-0.24,0.01,0.03,-0.03,0.01,-0.02,1012.59
9.171,0.14,0.98,0.11,-0.04,-0.06,0.02,-0.03,0.01,-0.02,1012.59
9.173,0.15,0.97,0.11,-0.04,-0.06,0.02,-0.03,0.01,-0.02,1012.59
9.204,0.15,0.97,0.11,-0.04,-0.06,0.02,-0.03,0.01,-0.02,1012.58
9.205,0.15,0.97,0.11,-0.04,-0.06,0.02,-0.04,0.05,-0.03,1012.58
9.206,0.14,0.98,0.11,-0.04,-0.06,0.02,-0.04,0.05,-0.03,1012.58
9.206,0.14,0.98,0.11,-0.18,0.02,-0.02,-0.04,0.05,-0.03,1012.58
9.246,0.14,0.98,0.11,-0.18,0.02,-0.02,-0.05,0.10,-0.04,1012.58
9.247,0.12,0.98,0.12,-0.18,0.02,-0.02,-0.05,0.10,-0.04,1012.58
9.248,0.12,0.98,0.12,-0.34,-0.03,0.03,-0.05,0.10,-0.04,1012.58
9.265,0.12,0.98,0.12,-0.34,-0.03,0.03,-0.05,0.10,-0.04,1012.57
9.289,0.12,0.98,0.12,-0.39,0.08,-0.03,-0.05,0.10,-0.04,1012.57
9.291,0.12,0.98,0.12,-0.39,0.08,-0.03,-0.02,0.03,-0.03,1012.57
9.291,0.11,0.99,0.11,-0.39,0.08,-0.03,-0.02,0.03,-0.03,1012.57
9.323,0.11,0.99,0.11,-0.39,0.08,-0.03,-0.00,-0.08,-0.01,1012.57
9.324,0.11,0.99,0.11,-0.32,-0.02,-0.17,-0.00,-0.08,-0.01,1012.57
9.325,0.11,0.99,0.11,-0.32,-0.02,-0.17,-0.00,-0.08,-0.01,1012.57
9.325,0.12,0.98,0.10,-0.32,-0.02,-0.17,-0.00,-0.08,-0.01,1012.57
