time,gFx,gFy,gFz,ax,ay,az,wx,wy,wz,P
0.003,0.16,0.99,-0.03,-0.15,0.11,0.09,-0.05,-0.02,0.00,1012.85
0.004,0.16,0.99,-0.03,-0.15,0.11,0.09,-0.02,-0.09,0.01,1012.85
0.005,0.16,0.99,-0.03,-0.19,0.06,-0.20,-0.02,-0.09,0.01,1012.85
0.026,0.20,0.96,-0.01,-0.19,0.06,-0.20,-0.02,-0.09,0.01,1012.85
0.027,0.20,0.96,-0.01,-0.19,0.06,-0.20,-0.06,-0.12,0.01,1012.85
0.028,0.20,0.96,-0.01,0.25,-0.18,0.05,-0.06,-0.12,0.01,1012.85
0.035,0.20,0.96,-0.01,0.25,-0.18,0.05,-0.06,-0.12,0.01,1012.86
0.065,0.18,0.99,0.01,0.25,-0.18,0.05,-0.06,-0.12,0.01,1012.86
0.066,0.18,0.99,0.01,0.25,-0.18,0.05,-0.03,-0.04,-0.04,1012.86
0.066,0.18,0.99,0.01,0.05,0.09,0.16,-0.03,-0.04,-0.04,1012.86
0.113,0.18,0.99,0.01,0.05,0.09,0.16,-0.03,-0.04,-0.04,1012.87
0.115,0.18,0.99,0.01,0.15,0.04,-0.04,-0.03,-0.04,-0.04,1012.87
0.117,0.19,0.99,-0.01,0.15,0.04,-0.04,-0.03,-0.04,-0.04,1012.87
0.118,0.19,0.99,-0.01,0.15,0.04,-0.04,-0.01,-0.06,-0.07,1012.87
0.165,0.16,0.97,0.00,0.15,0.04,-0.04,-0.01,-0.06,-0.07,1012.87
0.167,0.16,0.97,0.00,0.15,0.04,-0.04,-0.01,-0.10,-0.11,1012.87
0.169,0.16,0.97,0.00,-0.04,-0.12,0.12,-0.01,-0.10,-0.11,1012.87
0.171,0.16,0.97,0.00,-0.04,-0.12,0.12,-0.01,-0.10,-0.11,1012.86
0.186,0.16,0.97,0.00,0.16,0.02,0.30,-0.01,-0.10,-0.11,1012.86
0.189,0.18,0.99,0.02,0.16,0.02,0.30,-0.01,-0.10,-0.11,1012.86
0.19,0.18,0.99,0.02,0.16,0.02,0.30,0.03,-0.15,-0.11,1012.86
0.233,0.18,0.99,0.02,0.16,0.02,0.30,0.03,-0.15,-0.11,1012.84
0.236,0.15,0.98,0.03,0.16,0.02,0.30,0.03,-0.15,-0.11,1012.84
0.238,0.15,0.98,0.03,0.16,0.02,0.30,0.12,-0.17,-0.15,1012.84
0.24,0.15,0.98,0.03,-0.06,-0.01,0.48,0.12,-0.17,-0.15,1012.84
0.27,0.15,0.98,0.03,-0.25,-0.17,0.59,0.12,-0.17,-0.15,1012.84
0.271,0.13,0.97,0.03,-0.25,-0.17,0.59,0.12,-0.17,-0.15,1012.84
0.272,0.13,0.97,0.03,-0.25,-0.17,0.59,0.26,-0.19,-0.13,1012.84
0.275,0.13,0.97,0.03,-0.25,-0.17,0.59,0.26,-0.19,-0.13,1012.84
0.308,0.10,0.98,-0.02,-0.25,-0.17,0.59,0.26,-0.19,-0.13,1012.84
0.309,0.10,0.98,-0.02,-0.25,-0.17,0.59,0.37,-0.15,-0.07,1012.84
0.31,0.10,0.98,-0.02,-0.47,-0.03,0.23,0.37,-0.15,-0.07,1012.84
0.336,0.10,0.98,-0.02,-0.47,-0.03,0.23,0.37,-0.15,-0.07,1012.85
0.342,0.08,0.97,-0.07,-0.47,-0.03,0.23,0.37,-0.15,-0.07,1012.85
0.343,0.08,0.97,-0.07,-0.47,-0.03,0.23,0.39,-0.15,-0.03,1012.85
0.344,0.08,0.97,-0.07,-0.69,-0.18,-0.08,0.39,-0.15,-0.03,1012.85
0.383,0.12,0.96,-0.05,-0.69,-0.18,-0.08,0.39,-0.15,-0.03,1012.85
0.386,0.12,0.96,-0.05,-0.69,-0.18,-0.08,0.36,-0.34,0.00,1012.85
0.388,0.12,0.96,-0.05,-0.25,-0.22,0.23,0.36,-0.34,0.00,1012.85
0.396,0.12,0.96,-0.05,-0.25,-0.22,0.23,0.36,-0.34,0.00,1012.86
0.426,0.15,0.91,0.02,-0.25,-0.22,0.23,0.36,-0.34,0.00,1012.86
0.427,0.15,0.91,0.02,-0.25,-0.22,0.23,0.34,-0.44,0.03,1012.86
0.428,0.15,0.91,0.02,0.03,-0.68,1.02,0.34,-0.44,0.03,1012.86
0.457,0.15,0.91,0.02,0.03,-0.68,1.02,0.34,-0.44,0.03,1012.85
0.46,0.05,0.94,-0.12,0.03,-0.68,1.02,0.34,-0.44,0.03,1012.85
0.461,0.05,0.94,-0.12,0.03,-0.68,1.02,0.44,-0.41,0.05,1012.85
0.462,0.05,0.94,-0.12,-0.93,-0.34,-0.16,0.44,-0.41,0.05,1012.85
0.51,0.11,1.03,-0.21,-0.93,-0.34,-0.16,0.44,-0.41,0.05,1012.85
0.512,0.11,1.03,-0.21,-0.93,-0.34,-0.16,0.53,-0.47,0.12,1012.85
0.513,0.11,1.03,-0.21,-0.35,0.48,-0.74,0.53,-0.47,0.12,1012.85
0.517,0.11,1.03,-0.21,-0.35,0.48,-0.74,0.53,-0.47,0.12,1012.84
0.559,0.23,1.02,-0.07,-0.35,0.48,-0.74,0.53,-0.47,0.12,1012.84
0.562,0.23,1.02,-0.07,-0.35,0.48,-0.74,0.56,-0.11,0.10,1012.84
0.564,0.23,1.02,-0.07,0.74,0.49,0.79,0.56,-0.11,0.10,1012.84
0.576,0.23,1.02,-0.07,0.74,0.49,0.79,0.56,-0.11,0.10,1012.82
0.58,0.24,1.07,-0.30,0.74,0.49,0.79,0.56,-0.11,0.10,1012.82
0.581,0.24,1.07,-0.30,0.74,0.49,0.79,0.65,0.20,0.06,1012.82
0.581,0.24,1.07,-0.30,0.83,0.98,-1.20,0.65,0.20,0.06,1012.82
0.619,0.28,0.98,-0.44,0.83,0.98,-1.20,0.65,0.20,0.06,1012.82
0.62,0.28,0.98,-0.44,0.83,0.98,-1.20,0.41,0.07,-0.06,1012.82
0.624,0.28,0.98,-0.44,1.20,0.14,-2.38,0.41,0.07,-0.06,1012.82
0.636,0.28,0.98,-0.44,1.20,0.14,-2.38,0.41,0.07,-0.06,1012.82
0.658,0.16,0.97,-0.28,1.20,0.14,-2.38,0.41,0.07,-0.06,1012.82
0.659,0.16,0.97,-0.28,1.20,0.14,-2.38,0.08,0.12,-0.27,1012.82
0.659,0.16,0.97,-0.28,0.11,0.04,-0.75,0.08,0.12,-0.27,1012.82
0.696,0.16,0.97,-0.28,0.11,0.04,-0.75,0.08,0.12,-0.27,1012.82
0.698,0.01,0.91,-0.12,0.11,0.04,-0.75,0.08,0.12,-0.27,1012.82
0.699,0.01,0.91,-0.12,0.11,0.04,-0.75,0.03,0.03,-0.28,1012.82
0.7,0.01,0.91,-0.12,-1.26,-0.55,0.76,0.03,0.03,-0.28,1012.82
0.738,-0.10,0.94,-0.20,-1.26,-0.55,0.76,0.03,0.03,-0.28,1012.82
0.74,-0.10,0.94,-0.20,-1.26,-0.55,0.76,0.15,0.01,-0.04,1012.82
0.74,-0.10,0.94,-0.20,-2.24,-0.24,0.11,0.15,0.01,-0.04,1012.82
0.756,-0.10,0.94,-0.20,-2.24,-0.24,0.11,0.15,0.01,-0.04,1012.82
0.778,-0.26,0.91,-0.24,-2.24,-0.24,0.11,0.15,0.01,-0.04,1012.82
0.783,-0.26,0.91,-0.24,-2.24,-0.24,0.11,0.22,0.07,0.33,1012.82
0.784,-0.26,0.91,-0.24,-3.91,-0.56,-0.26,0.22,0.07,0.33,1012.82
0.818,-0.13,0.96,-0.23,-3.91,-0.56,-0.26,0.22,0.07,0.33,1012.82
0.821,-0.13,0.96,-0.23,-3.91,-0.56,-0.26,0.30,-0.12,0.86,1012.82
0.822,-0.13,0.96,-0.23,-3.91,-0.56,-0.26,0.30,-0.12,0.86,1012.83
0.823,-0.13,0.96,-0.23,-2.91,0.04,-0.03,0.30,-0.12,0.86,1012.83
0.857,0.22,0.98,-0.29,-2.91,0.04,-0.03,0.30,-0.12,0.86,1012.83
0.859,0.22,0.98,-0.29,-2.91,0.04,-0.03,0.37,-0.16,1.16,1012.83
0.86,0.22,0.98,-0.29,0.14,0.35,-0.45,0.37,-0.16,1.16,1012.83
0.877,0.22,0.98,-0.29,0.14,0.35,-0.45,0.37,-0.16,1.16,1012.84
0.897,0.53,1.15,-0.55,0.14,0.35,-0.45,0.37,-0.16,1.16,1012.84
0.898,0.53,1.15,-0.55,0.14,0.35,-0.45,0.20,-0.20,1.07,1012.84
0.899,0.53,1.15,-0.55,2.78,2.11,-2.90,0.20,-0.20,1.07,1012.84
0.935,0.76,1.42,-0.47,2.78,2.11,-2.90,0.20,-0.20,1.07,1012.84
0.937,0.76,1.42,-0.47,2.78,2.11,-2.90,-0.35,-0.02,0.59,1012.84
0.938,0.76,1.42,-0.47,2.78,2.11,-2.90,-0.35,-0.02,0.59,1012.84
0.939,0.76,1.42,-0.47,4.76,4.66,-2.15,-0.35,-0.02,0.59,1012.84
0.976,0.36,2.10,-0.21,4.76,4.66,-2.15,-0.35,-0.02,0.59,1012.84
0.979,0.36,2.10,-0.21,4.76,4.66,-2.15,-0.68,-0.10,-0.21,1012.84
0.981,0.36,2.10,-0.21,0.87,11.08,0.11,-0.68,-0.10,-0.21,1012.84
0.997,0.36,2.10,-0.21,0.87,11.08,0.11,-0.68,-0.10,-0.21,1012.83
1.016,-0.67,1.42,0.05,0.87,11.08,0.11,-0.68,-0.10,-0.21,1012.83
1.017,-0.67,1.42,0.05,0.87,11.08,0.11,-0.56,0.55,-0.34,1012.83
1.018,-0.67,1.42,0.05,-9.00,4.27,2.34,-0.56,0.55,-0.34,1012.83
1.054,-0.37,1.64,-0.66,-9.00,4.27,2.34,-0.56,0.55,-0.34,1012.83
1.055,-0.37,1.64,-0.66,-9.00,4.27,2.34,0.46,0.26,1.88,1012.83
1.056,-0.37,1.64,-0.66,-9.00,4.27,2.34,0.46,0.26,1.88,1012.83
1.057,-0.37,1.64,-0.66,-6.65,6.57,-4.39,0.46,0.26,1.88,1012.83
1.093,1.22,1.67,-0.40,-6.65,6.57,-4.39,0.46,0.26,1.88,1012.83
1.094,1.22,1.67,-0.40,-6.65,6.57,-4.39,0.98,-0.16,4.35,1012.83
1.095,1.22,1.67,-0.40,7.27,7.50,-1.37,0.98,-0.16,4.35,1012.83
1.117,1.22,1.67,-0.40,7.27,7.50,-1.37,0.98,-0.16,4.35,1012.82
1.138,0.53,1.55,-0.45,7.27,7.50,-1.37,0.98,-0.16,4.35,1012.82
1.14,0.53,1.55,-0.45,-0.87,6.95,-2.03,0.98,-0.16,4.35,1012.82
1.14,0.53,1.55,-0.45,-0.87,6.95,-2.03,1.06,2.29,3.26,1012.82
1.173,0.05,1.16,-0.22,-0.87,6.95,-2.03,1.06,2.29,3.26,1012.82
1.174,0.05,1.16,-0.22,-0.87,6.95,-2.03,0.47,2.13,2.84,1012.82
1.174,0.05,1.16,-0.22,-6.47,3.87,-0.13,0.47,2.13,2.84,1012.82
1.175,0.05,1.16,-0.22,-6.47,3.87,-0.13,0.47,2.13,2.84,1012.81
1.222,0.17,0.59,-0.10,-6.47,3.87,-0.13,0.47,2.13,2.84,1012.81
1.225,0.17,0.59,-0.10,-6.47,3.87,-0.13,0.19,-0.21,2.37,1012.81
1.226,0.17,0.59,-0.10,-5.85,-1.01,1.10,0.19,-0.21,2.37,1012.81
1.26,0.17,0.59,-0.10,-5.85,-1.01,1.10,0.19,-0.21,2.37,1012.80
1.262,0.12,0.19,0.02,-5.85,-1.01,1.10,0.19,-0.21,2.37,1012.80
1.264,0.12,0.19,0.02,-5.85,-1.01,1.10,0.23,-1.21,1.03,1012.80
1.264,0.12,0.19,0.02,-6.37,-4.52,2.70,0.23,-1.21,1.03,1012.80
1.29,0.05,-0.02,0.06,-6.37,-4.52,2.70,0.23,-1.21,1.03,1012.80
1.292,0.05,-0.02,0.06,-6.74,-6.64,3.29,0.23,-1.21,1.03,1012.80
1.293,0.05,-0.02,0.06,-6.74,-6.64,3.29,0.14,-0.72,-0.59,1012.80
1.294,0.05,-0.02,0.06,-6.74,-6.64,3.29,0.14,-0.72,-0.59,1012.80
1.336,-0.05,-0.18,0.06,-6.74,-6.64,3.29,0.14,-0.72,-0.59,1012.80
1.339,-0.05,-0.18,0.06,-6.74,-6.64,3.29,0.02,-0.57,-2.18,1012.80
1.341,-0.05,-0.18,0.06,-7.00,-8.66,3.35,0.02,-0.57,-2.18,1012.80
1.38,-0.05,-0.18,0.06,-7.00,-8.66,3.35,0.02,-0.57,-2.18,1012.80
1.383,0.09,-0.16,0.05,-7.00,-8.66,3.35,0.02,-0.57,-2.18,1012.80
1.384,0.09,-0.16,0.05,-7.00,-8.66,3.35,-0.06,-0.89,-3.23,1012.80
1.386,0.09,-0.16,0.05,-4.51,-9.09,3.38,-0.06,-0.89,-3.23,1012.80
1.41,0.58,-0.17,-0.20,-4.51,-9.09,3.38,-0.06,-0.89,-3.23,1012.80
1.413,0.58,-0.17,-0.20,-4.51,-9.09,3.38,-0.20,-1.54,-3.35,1012.80
1.414,0.58,-0.17,-0.20,1.51,-9.66,1.11,-0.20,-1.54,-3.35,1012.80
1.415,0.58,-0.17,-0.20,1.51,-9.66,1.11,-0.20,-1.54,-3.35,1012.78
1.45,1.44,-0.10,-0.31,1.51,-9.66,1.11,-0.20,-1.54,-3.35,1012.78
1.453,1.44,-0.10,-0.31,10.62,-9.20,0.08,-0.20,-1.54,-3.35,1012.78
1.454,1.44,-0.10,-0.31,10.62,-9.20,0.08,-0.38,-1.06,-2.15,1012.78
1.485,1.44,-0.10,-0.31,10.62,-9.20,0.08,-0.38,-1.06,-2.15,1012.76
1.491,1.32,-0.52,-0.30,10.62,-9.20,0.08,-0.38,-1.06,-2.15,1012.76
1.492,1.32,-0.52,-0.30,10.62,-9.20,0.08,0.10,-0.12,-0.88,1012.76
1.494,1.32,-0.52,-0.30,9.51,-13.23,0.30,0.10,-0.12,-0.88,1012.76
1.53,1.94,2.94,-1.00,9.51,-13.23,0.30,0.10,-0.12,-0.88,1012.76
1.534,1.94,2.94,-1.00,9.51,-13.23,0.30,1.18,0.14,1.36,1012.76
1.536,1.94,2.94,-1.00,14.93,20.73,-6.13,1.18,0.14,1.36,1012.76
1.538,1.94,2.94,-1.00,14.93,20.73,-6.13,1.18,0.14,1.36,1012.76
1.567,-0.68,0.58,-0.85,14.93,20.73,-6.13,1.18,0.14,1.36,1012.76
1.569,-0.68,0.58,-0.85,14.93,20.73,-6.13,-0.15,0.60,-0.99,1012.76
1.57,-0.68,0.58,-0.85,-10.38,-2.55,-4.78,-0.15,0.60,-0.99,1012.76
1.595,-0.68,0.58,-0.85,-10.38,-2.55,-4.78,-0.15,0.60,-0.99,1012.77
1.613,0.90,0.23,0.01,-10.38,-2.55,-4.78,-0.15,0.60,-0.99,1012.77
1.616,0.90,0.23,0.01,-10.38,-2.55,-4.78,-0.41,-1.07,0.93,1012.77
1.617,0.90,0.23,0.01,4.87,-5.78,3.61,-0.41,-1.07,0.93,1012.77
1.647,1.16,1.41,-0.66,4.87,-5.78,3.61,-0.41,-1.07,0.93,1012.77
1.651,1.16,1.41,-0.66,4.87,-5.78,3.61,-0.02,-0.41,0.10,1012.77
1.653,1.16,1.41,-0.66,7.38,5.73,-2.79,-0.02,-0.41,0.10,1012.77
1.654,1.16,1.41,-0.66,7.38,5.73,-2.79,-0.02,-0.41,0.10,1012.78
1.686,0.23,0.78,-0.41,7.38,5.73,-2.79,-0.02,-0.41,0.10,1012.78
1.689,0.23,0.78,-0.41,7.38,5.73,-2.79,-0.29,0.42,-1.12,1012.78
1.69,0.23,0.78,-0.41,-1.48,-0.70,-0.50,-0.29,0.42,-1.12,1012.78
1.715,0.23,0.78,-0.41,-1.48,-0.70,-0.50,-0.29,0.42,-1.12,1012.79
1.737,0.44,0.94,-0.41,-1.48,-0.70,-0.50,-0.29,0.42,-1.12,1012.79
1.741,0.44,0.94,-0.41,-1.48,-0.70,-0.50,-0.36,0.03,-0.82,1012.79
1.744,0.44,0.94,-0.41,0.91,0.67,-0.59,-0.36,0.03,-0.82,1012.79
1.776,0.24,0.87,-0.39,0.91,0.67,-0.59,-0.36,0.03,-0.82,1012.79
1.777,0.24,0.87,-0.39,0.91,0.67,-0.59,-0.48,0.15,-0.96,1012.79
1.777,0.24,0.87,-0.39,-0.75,-0.13,-0.62,-0.48,0.15,-0.96,1012.79
1.778,0.24,0.87,-0.39,-0.75,-0.13,-0.62,-0.48,0.15,-0.96,1012.79
1.821,0.08,0.89,-0.27,-0.75,-0.13,-0.62,-0.48,0.15,-0.96,1012.79
1.824,0.08,0.89,-0.27,-0.75,-0.13,-0.62,-0.50,0.23,-0.90,1012.79
1.825,0.08,0.89,-0.27,-1.98,-0.16,0.36,-0.50,0.23,-0.90,1012.79
1.859,0.08,0.89,-0.27,-1.98,-0.16,0.36,-0.50,0.23,-0.90,1012.78
1.861,-0.01,0.80,-0.15,-1.98,-0.16,0.36,-0.50,0.23,-0.90,1012.78
1.862,-0.01,0.80,-0.15,-1.98,-0.16,0.36,-0.36,0.16,-0.62,1012.78
1.865,-0.01,0.80,-0.15,-2.62,-1.08,1.42,-0.36,0.16,-0.62,1012.78
1.885,-0.12,0.88,-0.20,-2.62,-1.08,1.42,-0.36,0.16,-0.62,1012.78
1.887,-0.12,0.88,-0.20,-2.62,-1.08,1.42,-0.13,0.15,-0.22,1012.78
1.888,-0.12,0.88,-0.20,-3.61,-0.31,0.77,-0.13,0.15,-0.22,1012.78
1.894,-0.12,0.88,-0.20,-3.61,-0.31,0.77,-0.13,0.15,-0.22,1012.79
1.936,0.01,0.95,-0.33,-3.61,-0.31,0.77,-0.13,0.15,-0.22,1012.79
1.94,0.01,0.95,-0.33,-3.61,-0.31,0.77,-0.07,-0.38,0.33,1012.79
1.942,0.01,0.95,-0.33,-2.39,0.37,-0.47,-0.07,-0.38,0.33,1012.79
1.971,0.01,0.95,-0.33,-2.39,0.37,-0.47,-0.07,-0.38,0.33,1012.79
1.974,0.38,1.12,-0.49,-2.39,0.37,-0.47,-0.07,-0.38,0.33,1012.79
1.976,0.38,1.12,-0.49,-2.39,0.37,-0.47,-0.15,-0.61,0.61,1012.79
1.977,0.38,1.12,-0.49,1.10,2.00,-1.98,-0.15,-0.61,0.61,1012.79
2.017,0.64,1.31,-0.37,1.10,2.00,-1.98,-0.15,-0.61,0.61,1012.79
2.02,0.64,1.31,-0.37,3.44,3.82,-0.93,-0.15,-0.61,0.61,1012.79
2.023,0.64,1.31,-0.37,3.44,3.82,-0.93,-0.39,-0.13,0.41,1012.79
2.024,0.64,1.31,-0.37,3.44,3.82,-0.93,-0.39,-0.13,0.41,1012.79
2.062,0.31,1.57,-0.22,3.44,3.82,-0.93,-0.39,-0.13,0.41,1012.79
2.066,0.31,1.57,-0.22,3.44,3.82,-0.93,-0.56,0.58,-0.11,1012.79
2.068,0.31,1.57,-0.22,0.22,6.20,0.26,-0.56,0.58,-0.11,1012.79
2.074,0.31,1.57,-0.22,0.22,6.20,0.26,-0.56,0.58,-0.11,1012.80
2.081,-0.37,1.75,-0.21,0.22,6.20,0.26,-0.56,0.58,-0.11,1012.80
2.082,-0.37,1.75,-0.21,0.22,6.20,0.26,-0.73,0.29,-0.17,1012.80
2.082,-0.37,1.75,-0.21,-6.31,7.71,0.09,-0.73,0.29,-0.17,1012.80
2.129,-0.65,1.34,-0.32,-6.31,7.71,0.09,-0.73,0.29,-0.17,1012.80
2.131,-0.65,1.34,-0.32,-6.31,7.71,0.09,-0.47,-0.38,0.82,1012.80
2.132,-0.65,1.34,-0.32,-9.24,3.71,-1.12,-0.47,-0.38,0.82,1012.80
2.14,-0.65,1.34,-0.32,-9.24,3.71,-1.12,-0.47,-0.38,0.82,1012.80
2.16,0.92,1.69,-0.76,-9.24,3.71,-1.12,-0.47,-0.38,0.82,1012.80
2.161,0.92,1.69,-0.76,-9.24,3.71,-1.12,0.49,-1.35,3.80,1012.80
2.161,0.92,1.69,-0.76,4.85,7.64,-4.94,0.49,-1.35,3.80,1012.80
2.194,0.92,1.69,-0.76,4.85,7.64,-4.94,0.49,-1.35,3.80,1012.79
2.202,1.08,1.36,-0.35,4.85,7.64,-4.94,0.49,-1.35,3.80,1012.79
2.204,1.08,1.36,-0.35,4.85,7.64,-4.94,0.77,-0.20,3.75,1012.79
2.205,1.08,1.36,-0.35,5.13,5.08,-0.65,0.77,-0.20,3.75,1012.79
2.26,0.71,1.22,-0.39,5.13,5.08,-0.65,0.77,-0.20,3.75,1012.79
2.261,0.71,1.22,-0.39,5.13,5.08,-0.65,0.93,2.48,2.68,1012.79
2.262,0.71,1.22,-0.39,0.36,4.38,-1.29,0.93,2.48,2.68,1012.79
2.263,0.71,1.22,-0.39,0.36,4.38,-1.29,0.93,2.48,2.68,1012.77
2.28,0.08,0.97,-0.25,0.36,4.38,-1.29,0.93,2.48,2.68,1012.77
2.282,0.08,0.97,-0.25,0.36,4.38,-1.29,0.52,2.21,2.11,1012.77
2.283,0.08,0.97,-0.25,-6.48,2.52,-0.41,0.52,2.21,2.11,1012.77
2.314,0.08,0.97,-0.25,-6.48,2.52,-0.41,0.52,2.21,2.11,1012.76
2.321,-0.09,0.47,-0.07,-6.48,2.52,-0.41,0.52,2.21,2.11,1012.76
2.322,-0.09,0.47,-0.07,-6.48,2.52,-0.41,0.17,-0.34,1.88,1012.76
2.324,-0.09,0.47,-0.07,-8.53,-1.85,1.48,0.17,-0.34,1.88,1012.76
2.357,0.22,0.21,0.06,-8.53,-1.85,1.48,0.17,-0.34,1.88,1012.76
2.359,0.22,0.21,0.06,-8.53,-1.85,1.48,0.20,-1.71,1.11,1012.76
2.36,0.22,0.21,0.06,-5.50,-3.95,3.23,0.20,-1.71,1.11,1012.76
2.373,0.22,0.21,0.06,-5.50,-3.95,3.23,0.20,-1.71,1.11,1012.76
2.398,0.19,0.10,0.09,-5.50,-3.95,3.23,0.20,-1.71,1.11,1012.76
2.401,0.19,0.10,0.09,-5.50,-3.95,3.23,0.07,-0.60,-0.57,1012.76
2.403,0.19,0.10,0.09,-5.44,-5.12,3.70,0.07,-0.60,-0.57,1012.76
2.463,0.19,0.10,0.09,-5.44,-5.12,3.70,0.07,-0.60,-0.57,1012.76
2.466,-0.16,-0.15,0.03,-5.44,-5.12,3.70,0.07,-0.60,-0.57,1012.76
2.468,-0.16,-0.15,0.03,-5.44,-5.12,3.70,-0.10,-0.05,-2.21,1012.76
2.469,-0.16,-0.15,0.03,-8.17,-8.00,3.08,-0.10,-0.05,-2.21,1012.76
2.501,0.14,-0.27,-0.06,-8.17,-8.00,3.08,-0.10,-0.05,-2.21,1012.76
2.504,0.14,-0.27,-0.06,-8.17,-8.00,3.08,-0.13,-1.03,-2.98,1012.76
2.506,0.14,-0.27,-0.06,-4.26,-9.76,2.31,-0.13,-1.03,-2.98,1012.76
2.507,0.14,-0.27,-0.06,-4.26,-9.76,2.31,-0.13,-1.03,-2.98,1012.74
2.515,0.84,-0.18,-0.27,-4.26,-9.76,2.31,-0.13,-1.03,-2.98,1012.74
2.516,0.84,-0.18,-0.27,-4.26,-9.76,2.31,-0.19,-1.49,-3.03,1012.74
2.517,0.84,-0.18,-0.27,3.65,-9.36,0.50,-0.19,-1.49,-3.03,1012.74
2.557,0.84,-0.18,-0.27,3.65,-9.36,0.50,-0.19,-1.49,-3.03,1012.73
2.559,1.33,-0.30,-0.29,3.65,-9.36,0.50,-0.19,-1.49,-3.03,1012.73
2.561,1.33,-0.30,-0.29,3.65,-9.36,0.50,-0.34,-1.40,-2.09,1012.73
2.562,1.33,-0.30,-0.29,9.10,-10.79,0.41,-0.34,-1.40,-2.09,1012.73
2.595,2.27,0.69,-1.21,9.10,-10.79,0.41,-0.34,-1.40,-2.09,1012.73
2.6,2.27,0.69,-1.21,9.10,-10.79,0.41,0.77,-0.84,0.04,1012.73
2.603,2.27,0.69,-1.21,18.04,-0.90,-8.09,0.77,-0.84,0.04,1012.73
2.615,2.27,0.69,-1.21,18.04,-0.90,-8.09,0.77,-0.84,0.04,1012.73
2.638,2.27,0.69,-1.21,4.70,14.29,0.71,0.77,-0.84,0.04,1012.73
2.64,0.94,2.26,-0.29,4.70,14.29,0.71,0.77,-0.84,0.04,1012.73
2.64,0.94,2.26,-0.29,4.70,14.29,0.71,0.03,1.51,0.29,1012.73
2.675,0.94,2.26,-0.29,-13.68,-12.92,0.18,0.03,1.51,0.29,1012.73
2.68,-1.02,-0.51,-0.35,-13.68,-12.92,0.18,0.03,1.51,0.29,1012.73
2.682,-1.02,-0.51,-0.35,-13.68,-12.92,0.18,-0.23,-0.68,-1.56,1012.73
2.686,-1.02,-0.51,-0.35,-13.68,-12.92,0.18,-0.23,-0.68,-1.56,1012.72
2.714,1.96,1.50,-0.56,-13.68,-12.92,0.18,-0.23,-0.68,-1.56,1012.72
2.717,1.96,1.50,-0.56,-13.68,-12.92,0.18,-0.10,-1.17,1.53,1012.72
2.72,1.96,1.50,-0.56,14.89,6.89,-1.75,-0.10,-1.17,1.53,1012.72
2.745,1.96,1.50,-0.56,14.89,6.89,-1.75,-0.10,-1.17,1.53,1012.72
2.784,1.96,1.50,-0.56,-0.50,-0.15,-0.77,-0.10,-1.17,1.53,1012.72
2.787,0.36,0.81,-0.44,-0.50,-0.15,-0.77,-0.10,-1.17,1.53,1012.72
2.789,0.36,0.81,-0.44,-0.50,-0.15,-0.77,-0.34,0.65,-1.17,1012.72
2.792,0.20,0.91,-0.42,-0.50,-0.15,-0.77,-0.34,0.65,-1.17,1012.72
2.794,0.20,0.91,-0.42,-0.50,-0.15,-0.77,-0.34,0.17,-0.98,1012.72
2.796,0.20,0.91,-0.42,-1.75,0.65,-0.75,-0.34,0.17,-0.98,1012.72
2.798,0.20,0.91,-0.42,-1.75,0.65,-0.75,-0.34,0.17,-0.98,1012.72
2.834,0.50,0.94,-0.35,-1.75,0.65,-0.75,-0.34,0.17,-0.98,1012.72
2.838,0.50,0.94,-0.35,-1.75,0.65,-0.75,-0.47,-0.04,-0.69,1012.72
2.84,0.50,0.94,-0.35,1.39,0.72,-0.20,-0.47,-0.04,-0.69,1012.72
2.864,0.50,0.94,-0.35,1.39,0.72,-0.20,-0.47,-0.04,-0.69,1012.74
2.872,0.14,0.81,-0.32,1.39,0.72,-0.20,-0.47,-0.04,-0.69,1012.74
2.874,0.14,0.81,-0.32,1.39,0.72,-0.20,-0.48,0.27,-0.98,1012.74
2.877,0.14,0.81,-0.32,-1.76,-0.67,-0.04,-0.48,0.27,-0.98,1012.74
2.911,0.06,0.84,-0.18,-1.76,-0.67,-0.04,-0.48,0.27,-0.98,1012.74
2.914,0.06,0.84,-0.18,-1.76,-0.67,-0.04,-0.39,0.13,-0.74,1012.74
2.915,0.06,0.84,-0.18,-2.31,-0.57,1.10,-0.39,0.13,-0.74,1012.74
2.916,0.06,0.84,-0.18,-2.31,-0.57,1.10,-0.39,0.13,-0.74,1012.75
2.951,0.02,0.83,-0.19,-2.31,-0.57,1.10,-0.39,0.13,-0.74,1012.75
2.954,0.02,0.83,-0.19,-2.31,-0.57,1.10,-0.21,0.06,-0.37,1012.75
2.955,0.02,0.83,-0.19,-2.49,-0.68,0.95,-0.21,0.06,-0.37,1012.75
2.987,0.02,0.83,-0.19,-2.49,-0.68,0.95,-0.21,0.06,-0.37,1012.76
2.992,0.02,0.83,-0.19,-1.86,-0.01,0.53,-0.21,0.06,-0.37,1012.76
2.992,0.08,0.90,-0.23,-1.86,-0.01,0.53,-0.21,0.06,-0.37,1012.76
2.993,0.08,0.90,-0.23,-1.86,-0.01,0.53,-0.09,-0.11,0.01,1012.76
3.033,0.20,1.05,-0.38,-1.86,-0.01,0.53,-0.09,-0.11,0.01,1012.76
3.037,0.20,1.05,-0.38,-1.86,-0.01,0.53,-0.05,-0.28,0.26,1012.76
3.04,0.20,1.05,-0.38,-0.73,1.44,-0.87,-0.05,-0.28,0.26,1012.76
3.041,0.20,1.05,-0.38,-0.73,1.44,-0.87,-0.05,-0.28,0.26,1012.76
3.07,0.53,1.25,-0.46,-0.73,1.44,-0.87,-0.05,-0.28,0.26,1012.76
3.074,0.53,1.25,-0.46,-0.73,1.44,-0.87,-0.18,-0.06,0.32,1012.76
3.075,0.53,1.25,-0.46,2.38,3.33,-1.69,-0.18,-0.06,0.32,1012.76
3.094,0.53,1.25,-0.46,2.38,3.33,-1.69,-0.18,-0.06,0.32,1012.76
3.111,0.38,1.43,-0.27,2.38,3.33,-1.69,-0.18,-0.06,0.32,1012.76
3.114,0.38,1.43,-0.27,2.38,3.33,-1.69,-0.39,0.58,-0.11,1012.76
3.116,0.38,1.43,-0.27,0.80,5.01,-0.10,-0.39,0.58,-0.11,1012.76
3.148,-0.10,1.77,-0.17,0.80,5.01,-0.10,-0.39,0.58,-0.11,1012.76
3.149,-0.10,1.77,-0.17,0.80,5.01,-0.10,-0.54,0.51,-0.24,1012.76
3.149,-0.10,1.77,-0.17,-3.77,8.07,0.60,-0.54,0.51,-0.24,1012.76
3.193,-0.10,1.77,-0.17,-3.77,8.07,0.60,-0.54,0.51,-0.24,1012.75
3.195,-0.73,1.42,-0.19,-3.77,8.07,0.60,-0.54,0.51,-0.24,1012.75
3.195,-0.73,1.42,-0.19,-3.77,8.07,0.60,-0.51,0.04,0.29,1012.75
3.196,-0.73,1.42,-0.19,-9.93,4.62,0.25,-0.51,0.04,0.29,1012.75
3.213,-0.73,1.42,-0.19,-9.93,4.62,0.25,-0.51,0.04,0.29,1012.74
3.228,0.33,1.62,-0.74,-9.93,4.62,0.25,-0.51,0.04,0.29,1012.74
3.231,0.33,1.62,-0.74,-9.93,4.62,0.25,0.47,-0.44,2.92,1012.74
3.238,0.33,1.62,-0.74,-0.48,6.86,-4.83,0.47,-0.44,2.92,1012.74
3.266,1.27,1.58,-0.55,-0.48,6.86,-4.83,0.47,-0.44,2.92,1012.74
3.269,1.27,1.58,-0.55,-0.48,6.86,-4.83,1.09,-0.35,4.33,1012.74
3.27,1.27,1.58,-0.55,7.13,7.21,-2.52,1.09,-0.35,4.33,1012.74
3.274,1.27,1.58,-0.55,7.13,7.21,-2.52,1.09,-0.35,4.33,1012.74
3.307,0.89,1.17,-0.36,7.13,7.21,-2.52,1.09,-0.35,4.33,1012.74
3.312,0.89,1.17,-0.36,7.13,7.21,-2.52,1.17,1.79,3.07,1012.74
3.314,0.89,1.17,-0.36,2.22,3.99,-0.65,1.17,1.79,3.07,1012.74
3.334,0.89,1.17,-0.36,2.22,3.99,-0.65,1.17,1.79,3.07,1012.73
3.36,0.28,1.06,-0.29,2.22,3.99,-0.65,1.17,1.79,3.07,1012.73
3.364,0.28,1.06,-0.29,2.22,3.99,-0.65,0.85,2.43,2.13,1012.73
3.364,0.28,1.06,-0.29,-4.50,3.49,-0.47,0.85,2.43,2.13,1012.73
3.4,-0.05,0.58,-0.12,-4.50,3.49,-0.47,0.85,2.43,2.13,1012.73
3.406,-0.05,0.58,-0.12,-4.50,3.49,-0.47,0.34,0.70,1.62,1012.73
3.408,-0.05,0.58,-0.12,-8.14,-0.63,1.13,0.34,0.70,1.62,1012.73
3.41,-0.05,0.58,-0.12,-8.14,-0.63,1.13,0.34,0.70,1.62,1012.72
3.425,-0.02,0.20,0.04,-8.14,-0.63,1.13,0.34,0.70,1.62,1012.72
3.428,-0.02,0.20,0.04,-8.14,-0.63,1.13,0.28,-0.93,0.77,1012.72
3.429,-0.02,0.20,0.04,-7.76,-4.10,2.98,0.28,-0.93,0.77,1012.72
3.453,-0.02,0.20,0.04,-7.76,-4.10,2.98,0.28,-0.93,0.77,1012.73
3.466,-0.02,0.20,0.04,-6.78,-4.73,3.27,0.28,-0.93,0.77,1012.73
3.469,0.05,0.14,0.04,-6.78,-4.73,3.27,0.28,-0.93,0.77,1012.73
3.471,0.05,0.14,0.04,-6.78,-4.73,3.27,0.22,-0.91,-0.58,1012.73
3.505,-0.05,-0.05,0.00,-6.78,-4.73,3.27,0.22,-0.91,-0.58,1012.73
3.51,-0.05,-0.05,0.00,-6.78,-4.73,3.27,-0.01,-0.86,-2.03,1012.73
3.514,-0.05,-0.05,0.00,-7.02,-7.00,3.06,-0.01,-0.86,-2.03,1012.73
3.516,-0.05,-0.05,0.00,-7.02,-7.00,3.06,-0.01,-0.86,-2.03,1012.73
3.546,0.24,-0.15,-0.07,-7.02,-7.00,3.06,-0.01,-0.86,-2.03,1012.73
3.55,0.24,-0.15,-0.07,-7.02,-7.00,3.06,-0.20,-1.41,-2.96,1012.73
3.551,0.24,-0.15,-0.07,-3.15,-8.57,2.61,-0.20,-1.41,-2.96,1012.73
3.58,0.24,-0.15,-0.07,-3.15,-8.57,2.61,-0.20,-1.41,-2.96,1012.72
3.585,0.84,-0.26,-0.28,-3.15,-8.57,2.61,-0.20,-1.41,-2.96,1012.72
3.588,0.84,-0.26,-0.28,-3.15,-8.57,2.61,-0.36,-1.91,-2.95,1012.72
3.59,0.84,-0.26,-0.28,3.79,-10.16,0.79,-0.36,-1.91,-2.95,1012.72
3.629,1.34,-0.30,-0.31,3.79,-10.16,0.79,-0.36,-1.91,-2.95,1012.72
3.631,1.34,-0.30,-0.31,3.79,-10.16,0.79,-0.46,-1.33,-2.01,1012.72
3.631,1.34,-0.30,-0.31,9.40,-10.72,0.55,-0.46,-1.33,-2.01,1012.72
3.632,1.34,-0.30,-0.31,9.40,-10.72,0.55,-0.46,-1.33,-2.01,1012.69
3.661,2.25,0.49,-1.08,9.40,-10.72,0.55,-0.46,-1.33,-2.01,1012.69
3.663,2.25,0.49,-1.08,9.40,-10.72,0.55,0.58,-0.39,-0.17,1012.69
3.665,2.25,0.49,-1.08,18.13,-2.84,-6.70,0.58,-0.39,-0.17,1012.69
3.693,2.25,0.49,-1.08,18.13,-2.84,-6.70,0.58,-0.39,-0.17,1012.68
3.705,1.11,2.41,-0.13,18.13,-2.84,-6.70,0.58,-0.39,-0.17,1012.68
3.707,1.11,2.41,-0.13,18.13,-2.84,-6.70,-0.07,1.67,0.42,1012.68
3.709,1.11,2.41,-0.13,6.48,15.77,2.30,-0.07,1.67,0.42,1012.68
3.758,-1.37,-0.45,-0.60,6.48,15.77,2.30,-0.07,1.67,0.42,1012.68
3.764,-1.37,-0.45,-0.60,6.48,15.77,2.30,-0.06,-0.62,-2.07,1012.68
3.765,-1.37,-0.45,-0.60,-16.80,-12.37,-2.21,-0.06,-0.62,-2.07,1012.68
3.766,-1.37,-0.45,-0.60,-16.80,-12.37,-2.21,-0.06,-0.62,-2.07,1012.66
3.805,2.04,1.29,-0.45,-16.80,-12.37,-2.21,-0.06,-0.62,-2.07,1012.66
3.808,2.04,1.29,-0.45,-16.80,-12.37,-2.21,-0.12,-1.33,1.65,1012.66
3.809,2.04,1.29,-0.45,16.01,4.82,-0.55,-0.12,-1.33,1.65,1012.66
3.812,2.04,1.29,-0.45,16.01,4.82,-0.55,-0.12,-1.33,1.65,1012.66
3.821,0.34,0.96,-0.45,16.01,4.82,-0.55,-0.12,-1.33,1.65,1012.66
3.824,0.34,0.96,-0.45,16.01,4.82,-0.55,-0.24,0.71,-1.21,1012.66
3.824,0.34,0.96,-0.45,-0.40,1.34,-0.75,-0.24,0.71,-1.21,1012.66
3.865,0.07,0.87,-0.45,-0.40,1.34,-0.75,-0.24,0.71,-1.21,1012.66
3.867,0.07,0.87,-0.45,-0.40,1.34,-0.75,-0.29,0.01,-1.06,1012.66
3.869,0.07,0.87,-0.45,-2.62,0.19,-0.81,-0.29,0.01,-1.06,1012.66
3.896,0.07,0.87,-0.45,-2.62,0.19,-0.81,-0.29,0.01,-1.06,1012.67
3.898,0.61,0.92,-0.32,-2.62,0.19,-0.81,-0.29,0.01,-1.06,1012.67
3.899,0.61,0.92,-0.32,-2.62,0.19,-0.81,-0.41,-0.10,-0.67,1012.67
3.899,0.61,0.92,-0.32,2.87,0.55,0.32,-0.41,-0.10,-0.67,1012.67
3.933,0.61,0.92,-0.32,2.87,0.55,0.32,-0.41,-0.10,-0.67,1012.68
3.941,0.61,0.92,-0.32,-2.25,-0.38,-0.61,-0.41,-0.10,-0.67,1012.68
3.944,0.05,0.84,-0.40,-2.25,-0.38,-0.61,-0.41,-0.10,-0.67,1012.68
3.946,0.05,0.84,-0.40,-2.25,-0.38,-0.61,-0.37,0.50,-1.13,1012.68
3.98,0.02,0.85,-0.24,-2.25,-0.38,-0.61,-0.37,0.50,-1.13,1012.68
3.981,0.02,0.85,-0.24,-2.25,-0.38,-0.61,-0.39,0.30,-0.85,1012.68
3.982,0.02,0.85,-0.24,-2.29,-0.42,0.78,-0.39,0.30,-0.85,1012.68
3.992,0.02,0.85,-0.24,-2.29,-0.42,0.78,-0.39,0.30,-0.85,1012.69
4.018,-0.10,0.84,-0.24,-2.29,-0.42,0.78,-0.39,0.30,-0.85,1012.69
4.021,-0.10,0.84,-0.24,-2.29,-0.42,0.78,-0.23,0.16,-0.51,1012.69
4.022,-0.10,0.84,-0.24,-3.25,-0.59,0.70,-0.23,0.16,-0.51,1012.69
4.053,-0.10,0.84,-0.24,-3.25,-0.59,0.70,-0.23,0.16,-0.51,1012.69
4.057,-0.08,0.89,-0.21,-3.25,-0.59,0.70,-0.23,0.16,-0.51,1012.69
4.058,-0.08,0.89,-0.21,-3.25,-0.59,0.70,-0.10,-0.12,-0.03,1012.69
4.058,-0.08,0.89,-0.21,-2.99,-0.14,0.96,-0.10,-0.12,-0.03,1012.69
4.095,0.12,1.05,-0.37,-2.99,-0.14,0.96,-0.10,-0.12,-0.03,1012.69
4.097,0.12,1.05,-0.37,-2.99,-0.14,0.96,0.05,-0.39,0.37,1012.69
4.097,0.12,1.05,-0.37,-1.07,1.44,-0.56,0.05,-0.39,0.37,1012.69
4.112,0.12,1.05,-0.37,-1.07,1.44,-0.56,0.05,-0.39,0.37,1012.70
4.151,0.35,1.15,-0.55,-1.07,1.44,-0.56,0.05,-0.39,0.37,1012.70
4.155,0.35,1.15,-0.55,-1.07,1.44,-0.56,-0.07,-0.10,0.41,1012.70
4.157,0.35,1.15,-0.55,1.06,2.38,-2.30,-0.07,-0.10,0.41,1012.70
4.213,0.35,1.15,-0.55,1.06,2.38,-2.30,-0.07,-0.10,0.41,1012.71
4.217,0.43,1.33,-0.43,1.06,2.38,-2.30,-0.07,-0.10,0.41,1012.71
4.217,0.43,1.33,-0.43,1.06,2.38,-2.30,-0.37,0.26,0.16,1012.71
4.218,0.43,1.33,-0.43,1.66,4.12,-1.30,-0.37,0.26,0.16,1012.71
4.219,0.45,1.62,-0.18,1.66,4.12,-1.30,-0.37,0.26,0.16,1012.71
4.219,0.45,1.62,-0.18,1.66,4.12,-1.30,-0.59,0.70,-0.08,1012.71
4.22,0.45,1.62,-0.18,1.75,6.73,0.86,-0.59,0.70,-0.08,1012.71
4.232,0.45,1.62,-0.18,1.75,6.73,0.86,-0.59,0.70,-0.08,1012.71
4.256,-0.45,1.63,-0.14,1.75,6.73,0.86,-0.59,0.70,-0.08,1012.71
4.258,-0.45,1.63,-0.14,1.75,6.73,0.86,-0.69,0.55,-0.45,1012.71
4.26,-0.45,1.63,-0.14,-6.77,6.61,0.99,-0.69,0.55,-0.45,1012.71
4.293,-0.45,1.63,-0.14,-6.77,6.61,0.99,-0.69,0.55,-0.45,1012.72
4.296,-0.90,1.15,-0.32,-6.77,6.61,0.99,-0.69,0.55,-0.45,1012.72
4.298,-0.90,1.15,-0.32,-6.77,6.61,0.99,-0.34,0.25,0.64,1012.72
4.3,-0.90,1.15,-0.32,-11.31,1.87,-0.95,-0.34,0.25,0.64,1012.72
4.334,0.93,1.66,-0.71,-11.31,1.87,-0.95,-0.34,0.25,0.64,1012.72
4.337,0.93,1.66,-0.71,-11.31,1.87,-0.95,0.80,-0.81,4.14,1012.72
4.339,0.93,1.66,-0.71,5.19,7.41,-4.33,0.80,-0.81,4.14,1012.72
4.363,0.93,1.66,-0.71,5.19,7.41,-4.33,0.80,-0.81,4.14,1012.71
4.403,1.55,1.39,-0.37,5.19,7.41,-4.33,0.80,-0.81,4.14,1012.71
4.407,1.55,1.39,-0.37,5.19,7.41,-4.33,1.31,0.70,4.23,1012.71
4.409,1.55,1.39,-0.37,9.58,5.56,-0.66,1.31,0.70,4.23,1012.71
4.412,0.56,1.24,-0.38,9.58,5.56,-0.66,1.31,0.70,4.23,1012.71
4.414,0.56,1.24,-0.38,9.58,5.56,-0.66,1.39,2.82,2.50,1012.71
4.416,0.56,1.24,-0.38,-1.15,4.74,-0.99,1.39,2.82,2.50,1012.71
4.418,0.56,1.24,-0.38,-1.15,4.74,-0.99,1.39,2.82,2.50,1012.70
4.457,0.12,0.86,-0.12,-1.15,4.74,-0.99,1.39,2.82,2.50,1012.70
4.461,0.12,0.86,-0.12,-1.15,4.74,-0.99,0.75,2.45,1.94,1012.70
4.463,0.12,0.86,-0.12,-6.16,1.64,1.01,0.75,2.45,1.94,1012.70
4.492,0.12,0.86,-0.12,-6.16,1.64,1.01,0.75,2.45,1.94,1012.69
4.496,0.02,0.37,-0.01,-6.16,1.64,1.01,0.75,2.45,1.94,1012.69
4.497,0.02,0.37,-0.01,-6.16,1.64,1.01,0.50,0.82,1.43,1012.69
4.498,0.02,0.37,-0.01,-7.42,-2.61,1.98,0.50,0.82,1.43,1012.69
4.53,0.11,0.36,-0.08,-7.42,-2.61,1.98,0.50,0.82,1.43,1012.69
4.533,0.11,0.36,-0.08,-7.42,-2.61,1.98,0.62,-0.51,0.62,1012.69
4.534,0.11,0.36,-0.08,-7.42,-2.61,1.98,0.62,-0.51,0.62,1012.68
4.535,0.11,0.36,-0.08,-6.56,-2.43,1.54,0.62,-0.51,0.62,1012.68
4.57,0.19,0.22,-0.09,-6.56,-2.43,1.54,0.62,-0.51,0.62,1012.68
4.572,0.19,0.22,-0.09,-6.56,-2.43,1.54,0.55,-0.78,-0.52,1012.68
4.573,0.19,0.22,-0.09,-5.45,-3.89,1.80,0.55,-0.78,-0.52,1012.68
4.603,0.19,0.22,-0.09,-5.45,-3.89,1.80,0.55,-0.78,-0.52,1012.70
4.61,0.20,0.01,-0.02,-5.45,-3.89,1.80,0.55,-0.78,-0.52,1012.70
4.61,0.20,0.01,-0.02,-5.45,-3.89,1.80,0.54,-0.27,-1.74,1012.70
4.612,0.20,0.01,-0.02,-4.81,-6.29,2.62,0.54,-0.27,-1.74,1012.70
4.654,0.11,-0.09,-0.05,-4.81,-6.29,2.62,0.54,-0.27,-1.74,1012.70
4.657,0.11,-0.09,-0.05,-4.81,-6.29,2.62,0.70,-0.29,-2.70,1012.70
4.659,0.11,-0.09,-0.05,-4.95,-7.66,2.58,0.70,-0.29,-2.70,1012.70
4.661,0.11,-0.09,-0.05,-4.95,-7.66,2.58,0.70,-0.29,-2.70,1012.70
4.695,0.43,-0.17,-0.12,-4.95,-7.66,2.58,0.70,-0.29,-2.70,1012.70
4.699,0.43,-0.17,-0.12,-4.95,-7.66,2.58,0.84,-0.99,-3.07,1012.70
4.701,0.43,-0.17,-0.12,-0.77,-8.89,2.31,0.84,-0.99,-3.07,1012.70
4.713,0.43,-0.17,-0.12,-0.77,-8.89,2.31,0.84,-0.99,-3.07,1012.68
4.728,1.02,-0.13,-0.17,-0.77,-8.89,2.31,0.84,-0.99,-3.07,1012.68
4.729,1.02,-0.13,-0.17,-0.77,-8.89,2.31,0.86,-0.55,-2.91,1012.68
4.729,1.02,-0.13,-0.17,5.90,-8.76,2.12,0.86,-0.55,-2.91,1012.68
4.768,1.17,0.02,0.01,5.90,-8.76,2.12,0.86,-0.55,-2.91,1012.68
4.769,1.17,0.02,0.01,5.90,-8.76,2.12,0.58,0.89,-2.12,1012.68
4.769,1.17,0.02,0.01,7.73,-7.34,3.88,0.58,0.89,-2.12,1012.68
4.77,1.17,0.02,0.01,7.73,-7.34,3.88,0.58,0.89,-2.12,1012.66
4.808,1.55,1.41,-0.76,7.73,-7.34,3.88,0.58,0.89,-2.12,1012.66
4.809,1.55,1.41,-0.76,7.73,-7.34,3.88,0.98,0.61,-0.31,1012.66
4.81,1.55,1.41,-0.76,11.22,6.20,-3.41,0.98,0.61,-0.31,1012.66
4.831,1.55,1.41,-0.76,11.22,6.20,-3.41,0.98,0.61,-0.31,1012.66
4.851,0.48,1.71,-0.44,11.22,6.20,-3.41,0.98,0.61,-0.31,1012.66
4.854,0.48,1.71,-0.44,11.22,6.20,-3.41,-0.14,0.32,0.99,1012.66
4.855,0.48,1.71,-0.44,0.39,9.15,-0.35,-0.14,0.32,0.99,1012.66
4.888,0.48,1.71,-0.44,-7.41,-14.64,1.09,-0.14,0.32,0.99,1012.66
4.89,-0.38,-0.73,-0.32,-7.41,-14.64,1.09,-0.14,0.32,0.99,1012.66
4.89,-0.38,-0.73,-0.32,-7.41,-14.64,1.09,0.23,-1.38,-0.78,1012.66
4.891,-0.38,-0.73,-0.32,-7.41,-14.64,1.09,0.23,-1.38,-0.78,1012.67
4.926,2.17,1.76,-0.91,-7.41,-14.64,1.09,0.23,-1.38,-0.78,1012.67
4.929,2.17,1.76,-0.91,-7.41,-14.64,1.09,0.33,-0.19,1.23,1012.67
4.931,2.17,1.76,-0.91,16.94,9.85,-4.52,0.33,-0.19,1.23,1012.67
4.955,2.17,1.76,-0.91,16.94,9.85,-4.52,0.33,-0.19,1.23,1012.66
4.966,-0.35,0.53,-0.43,16.94,9.85,-4.52,0.33,-0.19,1.23,1012.66
4.967,-0.35,0.53,-0.43,16.94,9.85,-4.52,-0.22,0.82,-1.65,1012.66
4.967,-0.35,0.53,-0.43,-7.30,-2.46,-0.01,-0.22,0.82,-1.65,1012.66
5.009,0.66,1.01,-0.58,-7.30,-2.46,-0.01,-0.22,0.82,-1.65,1012.66
5.012,0.66,1.01,-0.58,-7.30,-2.46,-0.01,-0.24,-0.64,-0.36,1012.66
5.013,0.66,1.01,-0.58,-7.30,-2.46,-0.01,-0.24,-0.64,-0.36,1012.66
5.014,0.66,1.01,-0.58,2.76,2.10,-1.48,-0.24,-0.64,-0.36,1012.66
5.045,0.60,0.76,-0.35,2.76,2.10,-1.48,-0.24,-0.64,-0.36,1012.66
5.047,0.60,0.76,-0.35,2.76,2.10,-1.48,-0.42,0.23,-0.89,1012.66
5.049,0.60,0.76,-0.35,2.41,-0.50,0.63,-0.42,0.23,-0.89,1012.66
5.071,0.60,0.76,-0.35,2.41,-0.50,0.63,-0.42,0.23,-0.89,1012.66
5.084,0.02,0.89,-0.48,2.41,-0.50,0.63,-0.42,0.23,-0.89,1012.66
5.087,0.02,0.89,-0.48,2.41,-0.50,0.63,-0.33,0.67,-1.17,1012.66
5.088,0.02,0.89,-0.48,-3.03,0.56,-0.85,-0.33,0.67,-1.17,1012.66
5.125,0.02,0.89,-0.48,-1.04,-0.39,0.30,-0.33,0.67,-1.17,1012.66
5.131,0.19,0.81,-0.35,-1.04,-0.39,0.30,-0.33,0.67,-1.17,1012.66
5.134,0.19,0.81,-0.35,-1.04,-0.39,0.30,-0.44,0.12,-0.86,1012.66
5.136,0.19,0.81,-0.35,-1.04,-0.39,0.30,-0.44,0.12,-0.86,1012.66
5.167,-0.01,0.83,-0.36,-1.04,-0.39,0.30,-0.44,0.12,-0.86,1012.66
5.169,-0.01,0.83,-0.36,-1.04,-0.39,0.30,-0.37,0.23,-0.74,1012.66
5.17,-0.01,0.83,-0.36,-2.75,-0.34,0.09,-0.37,0.23,-0.74,1012.66
5.198,-0.01,0.83,-0.36,-2.75,-0.34,0.09,-0.37,0.23,-0.74,1012.65
5.204,-0.01,0.83,-0.36,-3.87,0.50,0.72,-0.37,0.23,-0.74,1012.65
5.205,-0.14,0.92,-0.28,-3.87,0.50,0.72,-0.37,0.23,-0.74,1012.65
5.206,-0.14,0.92,-0.28,-3.87,0.50,0.72,-0.28,0.05,-0.39,1012.65
5.243,-0.01,0.89,-0.26,-3.87,0.50,0.72,-0.28,0.05,-0.39,1012.65
5.245,-0.01,0.89,-0.26,-3.87,0.50,0.72,-0.12,-0.06,0.15,1012.65
5.246,-0.01,0.89,-0.26,-2.51,0.19,0.89,-0.12,-0.06,0.15,1012.65
5.251,-0.01,0.89,-0.26,-2.51,0.19,0.89,-0.12,-0.06,0.15,1012.65
5.284,0.12,0.89,-0.27,-2.51,0.19,0.89,-0.12,-0.06,0.15,1012.65
5.288,0.12,0.89,-0.27,-2.51,0.19,0.89,0.08,0.16,0.53,1012.65
5.291,0.12,0.89,-0.27,-1.48,0.20,0.79,0.08,0.16,0.53,1012.65
5.311,0.12,0.89,-0.27,-1.48,0.20,0.79,0.08,0.16,0.53,1012.66
5.322,0.21,0.95,-0.32,-1.48,0.20,0.79,0.08,0.16,0.53,1012.66
5.327,0.21,0.95,-0.32,-1.48,0.20,0.79,0.23,0.36,0.70,1012.66
5.329,0.21,0.95,-0.32,-0.80,0.91,0.34,0.23,0.36,0.70,1012.66
5.374,0.31,1.00,-0.57,-0.80,0.91,0.34,0.23,0.36,0.70,1012.66
5.377,0.31,1.00,-0.57,-0.80,0.91,0.34,0.24,0.40,0.78,1012.66
5.379,0.31,1.00,-0.57,-0.20,1.53,-2.06,0.24,0.40,0.78,1012.66
5.381,0.31,1.00,-0.57,-0.20,1.53,-2.06,0.24,0.40,0.78,1012.66
5.41,0.41,1.14,-0.57,-0.20,1.53,-2.06,0.24,0.40,0.78,1012.66
5.412,0.41,1.14,-0.57,-0.20,1.53,-2.06,-0.01,0.22,0.72,1012.66
5.414,0.41,1.14,-0.57,0.58,2.91,-2.07,-0.01,0.22,0.72,1012.66
5.431,0.41,1.14,-0.57,0.58,2.91,-2.07,-0.01,0.22,0.72,1012.65
5.452,0.68,1.36,-0.41,0.58,2.91,-2.07,-0.01,0.22,0.72,1012.65
5.457,0.68,1.36,-0.41,0.58,2.91,-2.07,-0.27,0.19,0.61,1012.65
5.458,0.68,1.36,-0.41,2.89,5.07,-0.57,-0.27,0.19,0.61,1012.65
5.486,0.52,1.59,-0.15,2.89,5.07,-0.57,-0.27,0.19,0.61,1012.65
5.488,0.52,1.59,-0.15,2.89,5.07,-0.57,-0.50,0.52,0.08,1012.65
5.489,0.52,1.59,-0.15,1.20,7.09,1.67,-0.50,0.52,0.08,1012.65
5.493,0.52,1.59,-0.15,1.20,7.09,1.67,-0.50,0.52,0.08,1012.65
5.519,-0.14,1.59,-0.15,1.20,7.09,1.67,-0.50,0.52,0.08,1012.65
5.521,-0.14,1.59,-0.15,1.20,7.09,1.67,-0.44,0.42,-0.24,1012.65
5.522,-0.14,1.59,-0.15,-5.14,6.93,1.42,-0.44,0.42,-0.24,1012.65
5.553,-0.14,1.59,-0.15,-5.14,6.93,1.42,-0.44,0.42,-0.24,1012.65
5.589,-0.34,1.03,-0.42,-5.14,6.93,1.42,-0.44,0.42,-0.24,1012.65
5.593,-0.34,1.03,-0.42,-5.14,6.93,1.42,-0.02,1.55,0.19,1012.65
5.595,-0.34,1.03,-0.42,-7.19,1.45,-1.41,-0.02,1.55,0.19,1012.65
5.599,0.51,1.26,-0.35,-7.19,1.45,-1.41,-0.02,1.55,0.19,1012.65
5.601,0.51,1.26,-0.35,0.39,4.02,-0.65,-0.02,1.55,0.19,1012.65
5.603,0.51,1.26,-0.35,0.39,4.02,-0.65,0.55,0.53,2.00,1012.65
5.626,0.51,1.26,-0.35,0.39,4.02,-0.65,0.55,0.53,2.00,1012.64
5.64,1.39,1.16,-0.29,0.39,4.02,-0.65,0.55,0.53,2.00,1012.64
5.643,1.39,1.16,-0.29,0.39,4.02,-0.65,1.25,0.88,2.88,1012.64
5.644,1.39,1.16,-0.29,7.93,3.65,0.13,1.25,0.88,2.88,1012.64
5.673,1.39,1.16,-0.29,7.93,3.65,0.13,1.25,0.88,2.88,1012.63
5.677,0.70,1.04,-0.39,7.93,3.65,0.13,1.25,0.88,2.88,1012.63
5.679,0.70,1.04,-0.39,7.93,3.65,0.13,1.59,3.21,2.05,1012.63
5.68,0.70,1.04,-0.39,0.17,3.11,-1.09,1.59,3.21,2.05,1012.63
5.715,0.53,0.73,-0.17,0.17,3.11,-1.09,1.59,3.21,2.05,1012.63
5.716,0.53,0.73,-0.17,0.17,3.11,-1.09,1.26,3.50,2.03,1012.63
5.717,0.53,0.73,-0.17,-2.38,0.81,0.37,1.26,3.50,2.03,1012.63
5.731,0.53,0.73,-0.17,-2.38,0.81,0.37,1.26,3.50,2.03,1012.63
5.757,0.42,0.47,-0.02,-2.38,0.81,0.37,1.26,3.50,2.03,1012.63
5.761,0.42,0.47,-0.02,-2.38,0.81,0.37,1.35,2.21,1.75,1012.63
5.764,0.42,0.47,-0.02,-3.92,-1.10,1.45,1.35,2.21,1.75,1012.63
5.805,0.42,0.47,-0.02,-3.92,-1.10,1.45,1.35,2.21,1.75,1012.64
5.809,0.49,0.48,0.04,-3.92,-1.10,1.45,1.35,2.21,1.75,1012.64
5.811,0.49,0.48,0.04,-3.92,-1.10,1.45,1.89,1.30,1.15,1012.64
5.813,0.49,0.48,0.04,-3.50,-0.47,1.96,1.89,1.30,1.15,1012.64
5.835,0.45,0.65,0.05,-3.50,-0.47,1.96,1.89,1.30,1.15,1012.64
5.837,0.45,0.65,0.05,-3.50,-0.47,1.96,2.29,0.95,0.20,1012.64
5.838,0.45,0.65,0.05,-3.93,1.39,2.20,2.29,0.95,0.20,1012.64
5.856,0.45,0.65,0.05,-3.93,1.39,2.20,2.29,0.95,0.20,1012.63
5.901,0.39,0.50,0.12,-3.93,1.39,2.20,2.29,0.95,0.20,1012.63
5.908,0.39,0.50,0.12,-3.93,1.39,2.20,2.29,0.90,-0.79,1012.63
5.911,0.39,0.50,0.12,-4.36,-0.18,2.99,2.29,0.90,-0.79,1012.63
5.913,0.39,0.50,0.12,-4.36,-0.18,2.99,2.29,0.90,-0.79,1012.63
5.916,0.33,0.35,0.11,-4.36,-0.18,2.99,2.29,0.90,-0.79,1012.63
5.918,0.33,0.35,0.11,-4.36,-0.18,2.99,2.31,0.95,-1.90,1012.63
5.92,0.33,0.35,0.11,-4.55,-2.11,3.00,2.31,0.95,-1.90,1012.63
5.956,0.33,0.35,0.11,-5.33,-3.28,2.55,2.31,0.95,-1.90,1012.63
5.958,0.18,0.29,0.03,-5.33,-3.28,2.55,2.31,0.95,-1.90,1012.63
5.96,0.18,0.29,0.03,-5.33,-3.28,2.55,2.25,0.65,-2.98,1012.63
5.989,0.18,0.29,0.03,-5.33,-3.28,2.55,2.25,0.65,-2.98,1012.61
5.994,0.27,0.33,0.04,-5.33,-3.28,2.55,2.25,0.65,-2.98,1012.61
5.995,0.27,0.33,0.04,-5.33,-3.28,2.55,2.11,0.08,-3.70,1012.61
5.996,0.27,0.33,0.04,-3.42,-3.59,3.05,2.11,0.08,-3.70,1012.61
6.031,0.27,0.33,0.04,-3.42,-3.59,3.05,2.11,0.08,-3.70,1012.59
6.034,0.50,0.38,0.05,-3.42,-3.59,3.05,2.11,0.08,-3.70,1012.59
6.036,0.50,0.38,0.05,-3.42,-3.59,3.05,1.91,0.37,-4.09,1012.59
6.038,0.50,0.38,0.05,-0.04,-3.72,3.62,1.91,0.37,-4.09,1012.59
6.071,0.53,0.41,0.02,-0.04,-3.72,3.62,1.91,0.37,-4.09,1012.59
6.073,0.53,0.41,0.02,-0.04,-3.72,3.62,1.73,1.19,-4.10,1012.59
6.073,0.53,0.41,0.02,1.38,-3.83,3.59,1.73,1.19,-4.10,1012.59
6.106,0.53,0.41,0.02,1.38,-3.83,3.59,1.73,1.19,-4.10,1012.58
6.11,0.59,0.51,-0.04,1.38,-3.83,3.59,1.73,1.19,-4.10,1012.58
6.111,0.59,0.51,-0.04,1.38,-3.83,3.59,1.40,1.31,-3.39,1012.58
6.112,0.59,0.51,-0.04,2.76,-3.06,3.21,1.40,1.31,-3.39,1012.58
6.16,0.94,0.49,-0.08,2.76,-3.06,3.21,1.40,1.31,-3.39,1012.58
6.162,0.94,0.49,-0.08,2.76,-3.06,3.21,0.63,0.45,-2.05,1012.58
6.166,0.94,0.49,-0.08,2.76,-3.06,3.21,0.63,0.45,-2.05,1012.58
6.167,0.94,0.49,-0.08,6.69,-3.39,2.90,0.63,0.45,-2.05,1012.58
6.189,1.19,1.00,-0.64,6.69,-3.39,2.90,0.63,0.45,-2.05,1012.58
6.19,1.19,1.00,-0.64,6.69,-3.39,2.90,0.22,0.14,-0.40,1012.58
6.191,1.19,1.00,-0.64,9.13,1.59,-2.51,0.22,0.14,-0.40,1012.58
6.21,1.19,1.00,-0.64,9.13,1.59,-2.51,0.22,0.14,-0.40,1012.58
6.23,0.77,2.67,-0.44,9.13,1.59,-2.51,0.22,0.14,-0.40,1012.58
6.232,0.77,2.67,-0.44,9.13,1.59,-2.51,-0.27,-0.43,1.84,1012.58
6.233,0.77,2.67,-0.44,4.41,17.83,-0.53,-0.27,-0.43,1.84,1012.58
6.272,-0.92,-1.13,-0.27,4.41,17.83,-0.53,-0.27,-0.43,1.84,1012.58
6.276,-0.92,-1.13,-0.27,4.41,17.83,-0.53,0.10,-0.12,-0.56,1012.58
6.278,-0.92,-1.13,-0.27,-11.79,-19.12,1.11,0.10,-0.12,-0.56,1012.58
6.282,-0.92,-1.13,-0.27,-11.79,-19.12,1.11,0.10,-0.12,-0.56,1012.59
6.319,2.32,1.82,-0.56,-11.79,-19.12,1.11,0.10,-0.12,-0.56,1012.59
6.324,2.32,1.82,-0.56,-11.79,-19.12,1.11,0.70,-0.78,2.27,1012.59
6.326,2.32,1.82,-0.56,19.06,10.02,-1.36,0.70,-0.78,2.27,1012.59
6.33,2.32,1.82,-0.56,19.06,10.02,-1.36,0.70,-0.78,2.27,1012.60
6.349,0.02,0.67,-0.42,19.06,10.02,-1.36,0.70,-0.78,2.27,1012.60
6.351,0.02,0.67,-0.42,19.06,10.02,-1.36,0.38,1.36,-0.97,1012.60
6.354,0.02,0.67,-0.42,-3.32,-1.35,-0.12,0.38,1.36,-0.97,1012.60
6.389,0.27,0.88,-0.78,-3.32,-1.35,-0.12,0.38,1.36,-0.97,1012.60
6.391,0.27,0.88,-0.78,-3.32,-1.35,-0.12,0.43,0.22,-0.30,1012.60
6.392,0.27,0.88,-0.78,-0.83,0.74,-3.46,0.43,0.22,-0.30,1012.60
6.392,0.27,0.88,-0.78,-0.83,0.74,-3.46,0.43,0.22,-0.30,1012.60
6.428,0.67,0.86,-0.57,-0.83,0.74,-3.46,0.43,0.22,-0.30,1012.60
6.429,0.67,0.86,-0.57,-0.83,0.74,-3.46,-0.07,0.29,-0.38,1012.60
6.43,0.67,0.86,-0.57,3.15,0.45,-1.41,-0.07,0.29,-0.38,1012.60
6.45,0.67,0.86,-0.57,3.15,0.45,-1.41,-0.07,0.29,-0.38,1012.61
6.469,0.06,0.86,-0.58,3.15,0.45,-1.41,-0.07,0.29,-0.38,1012.61
6.472,0.06,0.86,-0.58,3.15,0.45,-1.41,-0.23,0.41,-0.87,1012.61
6.474,0.06,0.86,-0.58,-2.64,0.32,-1.60,-0.23,0.41,-0.87,1012.61
6.516,0.41,0.88,-0.43,-2.64,0.32,-1.60,-0.23,0.41,-0.87,1012.61
6.518,0.41,0.88,-0.43,-2.64,0.32,-1.60,-0.43,-0.09,-0.61,1012.61
6.519,0.41,0.88,-0.43,1.03,0.33,-0.31,-0.43,-0.09,-0.61,1012.61
6.52,0.41,0.88,-0.43,1.03,0.33,-0.31,-0.43,-0.09,-0.61,1012.61
6.547,0.07,0.84,-0.43,1.03,0.33,-0.31,-0.43,-0.09,-0.61,1012.61
6.55,0.07,0.84,-0.43,1.03,0.33,-0.31,-0.43,0.25,-0.78,1012.61
6.551,0.07,0.84,-0.43,-2.10,-0.22,-0.47,-0.43,0.25,-0.78,1012.61
6.579,0.07,0.84,-0.43,-2.10,-0.22,-0.47,-0.43,0.25,-0.78,1012.61
6.585,0.02,0.86,-0.37,-2.10,-0.22,-0.47,-0.43,0.25,-0.78,1012.61
6.586,0.02,0.86,-0.37,-2.10,-0.22,-0.47,-0.42,0.10,-0.54,1012.61
6.586,0.02,0.86,-0.37,-2.37,-0.12,-0.01,-0.42,0.10,-0.54,1012.61
6.626,0.04,0.88,-0.36,-2.37,-0.12,-0.01,-0.42,0.10,-0.54,1012.61
6.629,0.04,0.88,-0.36,-2.37,-0.12,-0.01,-0.34,-0.01,-0.25,1012.61
6.631,0.04,0.88,-0.36,-2.05,0.04,0.02,-0.34,-0.01,-0.25,1012.61
6.633,0.04,0.88,-0.36,-2.05,0.04,0.02,-0.34,-0.01,-0.25,1012.60
6.67,0.07,0.89,-0.27,-2.05,0.04,0.02,-0.34,-0.01,-0.25,1012.60
6.675,0.07,0.89,-0.27,-2.05,0.04,0.02,-0.23,0.06,-0.01,1012.60
6.676,0.07,0.89,-0.27,-1.74,0.08,0.76,-0.23,0.06,-0.01,1012.60
6.701,0.07,0.89,-0.27,-1.74,0.08,0.76,-0.23,0.06,-0.01,1012.59
6.707,0.17,0.89,-0.21,-1.74,0.08,0.76,-0.23,0.06,-0.01,1012.59
6.708,0.17,0.89,-0.21,-1.74,0.08,0.76,-0.04,0.28,0.20,1012.59
6.708,0.17,0.89,-0.21,-0.84,0.15,1.27,-0.04,0.28,0.20,1012.59
6.747,-0.02,0.88,-0.39,-0.84,0.15,1.27,-0.04,0.28,0.20,1012.59
6.748,-0.02,0.88,-0.39,-0.84,0.15,1.27,0.22,0.61,0.34,1012.59
6.749,-0.02,0.88,-0.39,-2.79,0.07,-0.47,0.22,0.61,0.34,1012.59
6.749,-0.02,0.88,-0.39,-2.79,0.07,-0.47,0.22,0.61,0.34,1012.60
6.782,0.20,0.95,-0.31,-2.79,0.07,-0.47,0.22,0.61,0.34,1012.60
6.784,0.20,0.95,-0.31,-2.79,0.07,-0.47,0.28,0.55,0.66,1012.60
6.784,0.20,0.95,-0.31,-1.00,0.83,0.37,0.28,0.55,0.66,1012.60
6.81,0.20,0.95,-0.31,-1.00,0.83,0.37,0.28,0.55,0.66,1012.62
6.822,0.17,0.96,-0.42,-1.00,0.83,0.37,0.28,0.55,0.66,1012.62
6.824,0.17,0.96,-0.42,-1.00,0.83,0.37,0.42,0.59,0.75,1012.62
6.824,0.17,0.96,-0.42,-1.57,1.11,-0.67,0.42,0.59,0.75,1012.62
6.866,0.38,1.06,-0.51,-1.57,1.11,-0.67,0.42,0.59,0.75,1012.62
6.869,0.38,1.06,-0.51,-1.57,1.11,-0.67,0.46,0.54,0.87,1012.62
6.87,0.38,1.06,-0.51,0.17,2.22,-1.46,0.46,0.54,0.87,1012.62
6.872,0.38,1.06,-0.51,0.17,2.22,-1.46,0.46,0.54,0.87,1012.62
6.901,0.41,1.26,-0.75,0.17,2.22,-1.46,0.46,0.54,0.87,1012.62
6.902,0.41,1.26,-0.75,0.17,2.22,-1.46,0.60,0.97,0.69,1012.62
6.903,0.41,1.26,-0.75,0.09,4.27,-3.64,0.60,0.97,0.69,1012.62
6.931,0.41,1.26,-0.75,0.09,4.27,-3.64,0.60,0.97,0.69,1012.61
6.944,0.21,1.81,-0.19,0.09,4.27,-3.64,0.60,0.97,0.69,1012.61
6.949,0.21,1.81,-0.19,0.09,4.27,-3.64,0.30,1.51,0.52,1012.61
6.951,0.21,1.81,-0.19,-2.27,9.65,1.59,0.30,1.51,0.52,1012.61
6.981,0.06,1.83,-0.10,-2.27,9.65,1.59,0.30,1.51,0.52,1012.61
6.984,0.06,1.83,-0.10,-2.27,9.65,1.59,0.24,1.30,0.68,1012.61
6.985,0.06,1.83,-0.10,-3.99,9.79,2.33,0.24,1.30,0.68,1012.61
7.008,0.06,1.83,-0.10,-3.99,9.79,2.33,0.24,1.30,0.68,1012.60
7.021,0.36,1.09,-0.43,-3.99,9.79,2.33,0.24,1.30,0.68,1012.60
7.022,0.36,1.09,-0.43,-3.99,9.79,2.33,0.71,2.62,0.46,1012.60
7.023,0.36,1.09,-0.43,-1.56,2.72,-1.15,0.71,2.62,0.46,1012.60
7.051,0.36,1.09,-0.43,-1.56,2.72,-1.15,0.71,2.62,0.46,1012.59
7.097,0.54,1.06,-0.60,-1.56,2.72,-1.15,0.71,2.62,0.46,1012.59
7.099,0.54,1.06,-0.60,-1.56,2.72,-1.15,1.48,3.58,0.31,1012.59
7.1,0.54,1.06,-0.60,-0.25,2.61,-3.07,1.48,3.58,0.31,1012.59
7.101,1.06,1.06,-0.36,-0.25,2.61,-3.07,1.48,3.58,0.31,1012.59
7.102,1.06,1.06,-0.36,-0.25,2.61,-3.07,2.12,2.85,1.06,1012.59
7.103,1.06,1.06,-0.36,4.14,3.06,-0.75,2.12,2.85,1.06,1012.59
7.11,1.06,1.06,-0.36,4.14,3.06,-0.75,2.12,2.85,1.06,1012.59
7.157,1.06,1.06,-0.36,2.02,0.52,0.10,2.12,2.85,1.06,1012.59
7.161,0.90,0.76,-0.26,2.02,0.52,0.10,2.12,2.85,1.06,1012.59
7.163,0.90,0.76,-0.26,2.02,0.52,0.10,2.61,3.53,0.48,1012.59
7.17,0.90,0.76,-0.26,2.02,0.52,0.10,2.61,3.53,0.48,1012.60
7.189,0.63,0.82,0.02,2.02,0.52,0.10,2.61,3.53,0.48,1012.60
7.191,0.63,0.82,0.02,2.02,0.52,0.10,2.62,3.92,0.23,1012.60
7.193,0.63,0.82,0.02,-1.07,1.37,2.35,2.62,3.92,0.23,1012.60
7.219,0.67,0.70,0.14,-1.07,1.37,2.35,2.62,3.92,0.23,1012.60
7.223,0.67,0.70,0.14,-1.07,1.37,2.35,2.37,3.17,0.53,1012.60
7.225,0.67,0.70,0.14,-1.03,0.47,3.20,2.37,3.17,0.53,1012.60
7.23,0.67,0.70,0.14,-1.03,0.47,3.20,2.37,3.17,0.53,1012.59
7.277,0.67,0.70,0.14,-2.98,0.68,2.53,2.37,3.17,0.53,1012.59
7.28,0.49,0.69,0.08,-2.98,0.68,2.53,2.37,3.17,0.53,1012.59
7.282,0.49,0.69,0.08,-2.98,0.68,2.53,2.19,1.74,0.49,1012.59
7.304,0.49,0.69,0.08,-2.98,0.68,2.53,2.19,1.74,0.49,1012.56
7.307,0.49,0.66,0.12,-2.98,0.68,2.53,2.19,1.74,0.49,1012.56
7.308,0.49,0.66,0.12,-2.98,0.68,2.53,1.80,0.16,0.28,1012.56
7.31,0.49,0.66,0.12,-3.07,0.66,3.24,1.80,0.16,0.28,1012.56
7.337,0.45,0.44,0.04,-3.07,0.66,3.24,1.80,0.16,0.28,1012.56
7.34,0.45,0.44,0.04,-3.07,0.66,3.24,1.26,-0.56,-0.35,1012.56
7.343,0.45,0.44,0.04,-3.19,-1.52,2.94,1.26,-0.56,-0.35,1012.56
7.352,0.45,0.44,0.04,-3.19,-1.52,2.94,1.26,-0.56,-0.35,1012.55
7.398,0.43,0.28,-0.02,-3.19,-1.52,2.94,1.26,-0.56,-0.35,1012.55
7.401,0.43,0.28,-0.02,-3.19,-1.52,2.94,0.82,-0.44,-1.21,1012.55
7.403,0.43,0.28,-0.02,-3.05,-3.23,2.62,0.82,-0.44,-1.21,1012.55
7.41,0.43,0.28,-0.02,-3.05,-3.23,2.62,0.82,-0.44,-1.21,1012.57
7.415,0.24,0.18,-0.08,-3.05,-3.23,2.62,0.82,-0.44,-1.21,1012.57
7.416,0.24,0.18,-0.08,-3.05,-3.23,2.62,0.50,-0.21,-2.20,1012.57
7.417,0.24,0.18,-0.08,-4.22,-4.75,2.18,0.50,-0.21,-2.20,1012.57
7.47,0.27,0.12,-0.07,-4.22,-4.75,2.18,0.50,-0.21,-2.20,1012.57
7.473,0.27,0.12,-0.07,-4.22,-4.75,2.18,0.30,-0.30,-2.81,1012.57
7.475,0.27,0.12,-0.07,-3.15,-5.85,2.41,0.30,-0.30,-2.81,1012.57
7.477,0.27,0.12,-0.07,-3.15,-5.85,2.41,0.30,-0.30,-2.81,1012.57
7.517,0.45,0.17,-0.06,-3.15,-5.85,2.41,0.30,-0.30,-2.81,1012.57
7.52,0.45,0.17,-0.06,-3.15,-5.85,2.41,0.20,-0.30,-3.07,1012.57
7.521,0.45,0.17,-0.06,-0.42,-5.87,2.53,0.20,-0.30,-3.07,1012.57
7.529,0.45,0.17,-0.06,-0.42,-5.87,2.53,0.20,-0.30,-3.07,1012.56
7.533,0.52,0.28,-0.05,-0.42,-5.87,2.53,0.20,-0.30,-3.07,1012.56
7.534,0.52,0.28,-0.05,-0.42,-5.87,2.53,0.08,0.11,-3.01,1012.56
7.534,0.52,0.28,-0.05,1.13,-5.23,2.64,0.08,0.11,-3.01,1012.56
7.575,0.64,0.43,-0.12,1.13,-5.23,2.64,0.08,0.11,-3.01,1012.56
7.579,0.64,0.43,-0.12,1.13,-5.23,2.64,-0.14,0.17,-2.40,1012.56
7.58,0.64,0.43,-0.12,3.00,-4.06,1.80,-0.14,0.17,-2.40,1012.56
7.613,0.64,0.43,-0.12,3.00,-4.06,1.80,-0.14,0.17,-2.40,1012.55
7.615,0.47,0.41,-0.12,3.00,-4.06,1.80,-0.14,0.17,-2.40,1012.55
7.615,0.47,0.41,-0.12,3.00,-4.06,1.80,-0.38,-0.06,-1.62,1012.55
7.616,0.47,0.41,-0.12,1.86,-4.45,1.65,-0.38,-0.06,-1.62,1012.55
7.65,0.47,0.41,-0.12,1.86,-4.45,1.65,-0.38,-0.06,-1.62,1012.56
7.653,0.49,1.08,-0.55,1.86,-4.45,1.65,-0.38,-0.06,-1.62,1012.56
7.656,0.49,1.08,-0.55,1.86,-4.45,1.65,0.15,-1.48,-0.47,1012.56
7.658,0.49,1.08,-0.55,2.35,2.12,-2.34,0.15,-1.48,-0.47,1012.56
7.692,1.61,2.54,-0.97,2.35,2.12,-2.34,0.15,-1.48,-0.47,1012.56
7.695,1.61,2.54,-0.97,2.35,2.12,-2.34,0.32,-0.79,2.89,1012.56
7.698,1.61,2.54,-0.97,12.29,16.45,-6.12,0.32,-0.79,2.89,1012.56
7.71,1.61,2.54,-0.97,12.29,16.45,-6.12,0.32,-0.79,2.89,1012.57
7.732,-0.07,-0.95,-0.30,12.29,16.45,-6.12,0.32,-0.79,2.89,1012.57
7.733,-0.07,-0.95,-0.30,12.29,16.45,-6.12,-0.17,1.06,-0.69,1012.57
7.734,-0.07,-0.95,-0.30,-4.05,-17.55,0.22,-0.17,1.06,-0.69,1012.57
7.773,-0.07,-0.95,-0.30,0.45,5.32,-1.91,-0.17,1.06,-0.69,1012.57
7.775,-0.07,-0.95,-0.30,0.45,5.32,-1.91,-0.17,1.06,-0.69,1012.57
7.777,0.38,1.39,-0.53,0.45,5.32,-1.91,-0.17,1.06,-0.69,1012.57
7.778,0.38,1.39,-0.53,0.45,5.32,-1.91,0.09,-0.21,0.00,1012.57
7.811,1.17,1.28,-0.55,0.45,5.32,-1.91,0.09,-0.21,0.00,1012.57
7.812,1.17,1.28,-0.55,0.45,5.32,-1.91,-0.65,-0.60,0.53,1012.57
7.812,1.17,1.28,-0.55,7.90,4.14,-2.26,-0.65,-0.60,0.53,1012.57
7.83,1.17,1.28,-0.55,7.90,4.14,-2.26,-0.65,-0.60,0.53,1012.57
7.85,-0.05,0.45,-0.30,7.90,4.14,-2.26,-0.65,-0.60,0.53,1012.57
7.853,-0.05,0.45,-0.30,7.90,4.14,-2.26,-0.62,-0.30,-1.04,1012.57
7.855,-0.05,0.45,-0.30,-3.59,-4.08,0.02,-0.62,-0.30,-1.04,1012.57
7.89,0.63,1.18,-0.31,-3.59,-4.08,0.02,-0.62,-0.30,-1.04,1012.57
7.894,0.63,1.18,-0.31,-3.59,-4.08,0.02,-0.63,-0.22,-0.30,1012.57
7.896,0.63,1.18,-0.31,3.13,2.84,-0.25,-0.63,-0.22,-0.30,1012.57
7.898,0.63,1.18,-0.31,3.13,2.84,-0.25,-0.63,-0.22,-0.30,1012.57
7.929,0.30,0.74,-0.09,3.13,2.84,-0.25,-0.63,-0.22,-0.30,1012.57
7.933,0.30,0.74,-0.09,3.13,2.84,-0.25,-0.55,0.24,-0.91,1012.57
7.934,0.30,0.74,-0.09,0.22,-1.54,1.68,-0.55,0.24,-0.91,1012.57
7.949,0.30,0.74,-0.09,0.22,-1.54,1.68,-0.55,0.24,-0.91,1012.57
7.969,-0.02,0.91,-0.30,0.22,-1.54,1.68,-0.55,0.24,-0.91,1012.57
7.972,-0.02,0.91,-0.30,0.22,-1.54,1.68,-0.20,0.12,-0.88,1012.57
7.973,-0.02,0.91,-0.30,-2.62,0.01,-0.48,-0.20,0.12,-0.88,1012.57
8.021,0.39,0.97,-0.27,-2.62,0.01,-0.48,-0.20,0.12,-0.88,1012.57
8.024,0.39,0.97,-0.27,-2.62,0.01,-0.48,-0.21,0.21,-0.56,1012.57
8.026,0.39,0.97,-0.27,1.61,0.48,-0.30,-0.21,0.21,-0.56,1012.57
8.028,0.39,0.97,-0.27,1.61,0.48,-0.30,-0.21,0.21,-0.56,1012.58
8.047,-0.18,0.91,-0.43,1.61,0.48,-0.30,-0.21,0.21,-0.56,1012.58
8.05,-0.18,0.91,-0.43,1.61,0.48,-0.30,-0.20,0.48,-0.83,1012.58
8.051,-0.18,0.91,-0.43,-3.70,-0.18,-1.87,-0.20,0.48,-0.83,1012.58
8.071,-0.18,0.91,-0.43,-3.70,-0.18,-1.87,-0.20,0.48,-0.83,1012.56
8.087,-0.05,0.97,-0.36,-3.70,-0.18,-1.87,-0.20,0.48,-0.83,1012.56
8.089,-0.05,0.97,-0.36,-3.70,-0.18,-1.87,-0.45,-0.32,-0.37,1012.56
8.091,-0.05,0.97,-0.36,-2.26,0.33,-1.37,-0.45,-0.32,-0.37,1012.56
8.128,0.03,0.96,-0.24,-2.26,0.33,-1.37,-0.45,-0.32,-0.37,1012.56
8.131,0.03,0.96,-0.24,-2.26,0.33,-1.37,-0.56,-0.43,-0.08,1012.56
8.133,0.03,0.96,-0.24,-2.26,0.33,-1.37,-0.56,-0.43,-0.08,1012.56
8.135,0.03,0.96,-0.24,-1.37,0.22,-0.33,-0.56,-0.43,-0.08,1012.56
8.179,-0.04,0.97,-0.13,-1.37,0.22,-0.33,-0.56,-0.43,-0.08,1012.56
8.183,-0.04,0.97,-0.13,-1.37,0.22,-0.33,-0.48,-0.17,0.12,1012.56
8.184,-0.04,0.97,-0.13,-2.05,0.21,0.60,-0.48,-0.17,0.12,1012.56
8.207,-0.04,0.97,-0.13,-2.05,0.21,0.60,-0.48,-0.17,0.12,1012.56
8.209,0.06,0.95,-0.06,-2.05,0.21,0.60,-0.48,-0.17,0.12,1012.56
8.21,0.06,0.95,-0.06,-2.05,0.21,0.60,-0.27,0.08,0.43,1012.56
8.21,0.06,0.95,-0.06,-1.19,0.02,1.15,-0.27,0.08,0.43,1012.56
8.246,0.24,0.94,-0.13,-1.19,0.02,1.15,-0.27,0.08,0.43,1012.56
8.249,0.24,0.94,-0.13,-1.19,0.02,1.15,-0.00,0.42,0.64,1012.56
8.251,0.24,0.94,-0.13,0.26,-0.02,0.41,-0.00,0.42,0.64,1012.56
8.253,0.24,0.94,-0.13,0.26,-0.02,0.41,-0.00,0.42,0.64,1012.58
8.298,0.47,1.05,-0.43,0.26,-0.02,0.41,-0.00,0.42,0.64,1012.58
8.302,0.47,1.05,-0.43,0.26,-0.02,0.41,0.03,0.52,0.62,1012.58
8.304,0.47,1.05,-0.43,2.24,1.15,-2.56,0.03,0.52,0.62,1012.58
8.334,0.47,1.05,-0.43,2.24,1.15,-2.56,0.03,0.52,0.62,1012.57
8.337,0.12,0.90,-0.28,2.24,1.15,-2.56,0.03,0.52,0.62,1012.57
8.34,0.12,0.90,-0.28,2.24,1.15,-2.56,-0.41,0.32,0.21,1012.57
8.341,0.12,0.90,-0.28,-1.22,-0.39,-1.16,-0.41,0.32,0.21,1012.57
8.364,0.12,0.90,-0.28,-1.06,0.47,0.31,-0.41,0.32,0.21,1012.57
8.366,0.15,0.98,-0.11,-1.06,0.47,0.31,-0.41,0.32,0.21,1012.57
8.367,0.15,0.98,-0.11,-1.06,0.47,0.31,-0.49,0.09,0.30,1012.57
8.368,0.15,0.98,-0.11,-1.06,0.47,0.31,-0.49,0.09,0.30,1012.57
8.403,0.31,0.87,-0.10,-1.06,0.47,0.31,-0.49,0.09,0.30,1012.57
8.406,0.31,0.87,-0.10,-1.06,0.47,0.31,-0.45,-0.24,0.38,1012.57
8.408,0.31,0.87,-0.10,0.37,-0.57,0.22,-0.45,-0.24,0.38,1012.57
8.429,0.31,0.87,-0.10,0.37,-0.57,0.22,-0.45,-0.24,0.38,1012.55
8.444,0.31,0.87,-0.10,0.53,-0.46,1.15,-0.45,-0.24,0.38,1012.55
8.448,0.33,0.88,0.00,0.53,-0.46,1.15,-0.45,-0.24,0.38,1012.55
8.449,0.33,0.88,0.00,0.53,-0.46,1.15,-0.31,-0.28,0.30,1012.55
8.482,0.54,0.96,0.03,0.53,-0.46,1.15,-0.31,-0.28,0.30,1012.55
8.484,0.54,0.96,0.03,0.53,-0.46,1.15,-0.09,-0.13,0.16,1012.55
8.487,0.54,0.96,0.03,2.43,0.34,1.33,-0.09,-0.13,0.16,1012.55
8.488,0.54,0.96,0.03,2.43,0.34,1.33,-0.09,-0.13,0.16,1012.55
8.522,0.29,0.98,0.11,2.43,0.34,1.33,-0.09,-0.13,0.16,1012.55
8.526,0.29,0.98,0.11,2.43,0.34,1.33,0.18,0.38,-0.19,1012.55
8.527,0.29,0.98,0.11,0.07,0.51,2.08,0.18,0.38,-0.19,1012.55
8.549,0.29,0.98,0.11,0.07,0.51,2.08,0.18,0.38,-0.19,1012.56
8.581,0.23,0.94,-0.19,0.07,0.51,2.08,0.18,0.38,-0.19,1012.56
8.585,0.23,0.94,-0.19,0.07,0.51,2.08,0.49,0.71,-0.16,1012.56
8.586,0.23,0.94,-0.19,-0.54,0.08,-0.69,0.49,0.71,-0.16,1012.56
8.617,0.21,0.95,-0.34,-0.54,0.08,-0.69,0.49,0.71,-0.16,1012.56
8.62,0.21,0.95,-0.34,-0.54,0.08,-0.69,0.43,0.68,-0.08,1012.56
8.623,0.21,0.95,-0.34,-0.73,0.16,-2.03,0.43,0.68,-0.08,1012.56
8.625,0.21,0.95,-0.34,-0.73,0.16,-2.03,0.43,0.68,-0.08,1012.55
8.643,0.21,0.95,-0.34,-1.56,0.19,-2.41,0.43,0.68,-0.08,1012.55
8.647,0.12,0.95,-0.38,-1.56,0.19,-2.41,0.43,0.68,-0.08,1012.55
8.649,0.12,0.95,-0.38,-1.56,0.19,-2.41,0.13,0.40,0.02,1012.55
8.669,0.12,0.95,-0.38,-1.56,0.19,-2.41,0.13,0.40,0.02,1012.55
8.686,0.20,1.01,-0.24,-1.56,0.19,-2.41,0.13,0.40,0.02,1012.55
8.689,0.20,1.01,-0.24,-1.56,0.19,-2.41,-0.17,0.11,0.18,1012.55
8.69,0.20,1.01,-0.24,-0.83,0.74,-1.11,-0.17,0.11,0.18,1012.55
8.73,0.29,0.91,-0.13,-0.83,0.74,-1.11,-0.17,0.11,0.18,1012.55
8.731,0.29,0.91,-0.13,-0.83,0.74,-1.11,-0.28,-0.00,0.22,1012.55
8.732,0.29,0.91,-0.13,-0.04,-0.15,-0.06,-0.28,-0.00,0.22,1012.55
8.733,0.29,0.91,-0.13,-0.04,-0.15,-0.06,-0.28,-0.00,0.22,1012.56
8.77,0.34,0.93,-0.09,-0.04,-0.15,-0.06,-0.28,-0.00,0.22,1012.56
8.776,0.34,0.93,-0.09,-0.04,-0.15,-0.06,-0.23,0.05,0.18,1012.56
8.778,0.34,0.93,-0.09,0.42,0.02,0.24,-0.23,0.05,0.18,1012.56
8.79,0.34,0.93,-0.09,0.42,0.02,0.24,-0.23,0.05,0.18,1012.56
8.805,0.30,0.93,-0.08,0.42,0.02,0.24,-0.23,0.05,0.18,1012.56
8.806,0.30,0.93,-0.08,0.42,0.02,0.24,-0.15,0.13,0.09,1012.56
8.807,0.30,0.93,-0.08,-0.06,0.00,0.22,-0.15,0.13,0.09,1012.56
8.838,0.31,0.92,-0.05,-0.06,0.00,0.22,-0.15,0.13,0.09,1012.56
8.84,0.31,0.92,-0.05,-0.06,0.00,0.22,-0.10,0.07,0.08,1012.56
8.841,0.31,0.92,-0.05,0.02,-0.07,0.42,-0.10,0.07,0.08,1012.56
8.848,0.31,0.92,-0.05,0.02,-0.07,0.42,-0.10,0.07,0.08,1012.55
8.894,0.30,0.97,-0.07,0.02,-0.07,0.42,-0.10,0.07,0.08,1012.55
8.897,0.30,0.97,-0.07,0.02,-0.07,0.42,-0.00,0.19,0.07,1012.55
8.899,0.30,0.97,-0.07,-0.15,0.40,0.23,-0.00,0.19,0.07,1012.55
8.954,0.30,0.97,-0.07,-0.15,0.40,0.23,-0.00,0.19,0.07,1012.55
8.958,0.30,0.97,-0.07,-0.50,0.16,-0.62,-0.00,0.19,0.07,1012.55
8.96,0.26,0.94,-0.16,-0.50,0.16,-0.62,-0.00,0.19,0.07,1012.55
8.962,0.26,0.94,-0.16,-0.50,0.16,-0.62,0.04,0.19,0.08,1012.55
8.963,0.33,0.94,-0.15,-0.50,0.16,-0.62,0.04,0.19,0.08,1012.55
8.964,0.33,0.94,-0.15,-0.50,0.16,-0.62,-0.03,0.11,0.10,1012.55
8.965,0.33,0.94,-0.15,0.11,0.10,-0.54,-0.03,0.11,0.10,1012.55
8.968,0.33,0.94,-0.15,0.11,0.10,-0.54,-0.03,0.11,0.10,1012.55
9.0,0.32,0.91,-0.07,0.11,0.10,-0.54,-0.03,0.11,0.10,1012.55
9.001,0.32,0.91,-0.07,0.11,0.10,-0.54,-0.06,0.12,0.05,1012.55
9.002,0.32,0.91,-0.07,-0.06,-0.18,0.21,-0.06,0.12,0.05,1012.55
9.034,0.32,0.91,-0.07,-0.06,-0.18,0.21,-0.06,0.12,0.05,1012.55
9.036,0.28,0.97,-0.10,-0.06,-0.18,0.21,-0.06,0.12,0.05,1012.55
9.038,0.28,0.97,-0.10,-0.06,-0.18,0.21,-0.01,0.08,0.06,1012.55
9.039,0.28,0.97,-0.10,-0.44,0.43,-0.13,-0.01,0.08,0.06,1012.55
9.076,0.28,0.97,-0.10,-0.19,-0.02,-0.20,-0.01,0.08,0.06,1012.55
9.078,0.31,0.92,-0.11,-0.19,-0.02,-0.20,-0.01,0.08,0.06,1012.55
9.078,0.31,0.92,-0.11,-0.19,-0.02,-0.20,0.00,0.02,0.09,1012.55
9.088,0.31,0.92,-0.11,-0.19,-0.02,-0.20,0.00,0.02,0.09,1012.55
9.113,0.29,0.96,-0.14,-0.19,-0.02,-0.20,0.00,0.02,0.09,1012.55
9.115,0.29,0.96,-0.14,-0.19,-0.02,-0.20,-0.02,-0.02,0.10,1012.55
9.115,0.29,0.96,-0.14,-0.39,0.32,-0.51,-0.02,-0.02,0.10,1012.55
9.147,0.29,0.96,-0.14,-0.39,0.32,-0.51,-0.02,-0.02,0.10,1012.55
9.153,0.37,0.91,-0.07,-0.39,0.32,-0.51,-0.02,-0.02,0.10,1012.55
9.154,0.37,0.91,-0.07,-0.39,0.32,-0.51,-0.07,-0.10,0.13,1012.55
9.154,0.37,0.91,-0.07,0.34,-0.09,0.18,-0.07,-0.10,0.13,1012.55
9.192,0.37,0.94,-0.08,0.34,-0.09,0.18,-0.07,-0.10,0.13,1012.55
9.193,0.37,0.94,-0.08,0.34,-0.09,0.18,0.00,-0.09,0.04,1012.55
9.194,0.37,0.94,-0.08,0.35,0.21,0.09,0.00,-0.09,0.04,1012.55
9.208,0.37,0.94,-0.08,0.35,0.21,0.09,0.00,-0.09,0.04,1012.56
