time,gFx,gFy,gFz,ax,ay,az,wx,wy,wz,P
0.018,0.26,0.97,0.03,0.52,-0.14,0.15,-0.00,-0.26,0.07,1012.86
0.019,0.26,0.97,0.03,0.52,-0.14,0.15,0.03,-0.02,-0.03,1012.86
0.02,0.26,0.97,0.03,0.29,-0.01,0.15,0.03,-0.02,-0.03,1012.86
0.02,0.26,0.97,0.03,0.29,-0.01,0.15,0.03,-0.02,-0.03,1012.86
0.049,0.19,0.97,0.02,0.29,-0.01,0.15,0.03,-0.02,-0.03,1012.86
0.049,0.19,0.97,0.02,0.29,-0.01,0.15,0.04,0.18,-0.08,1012.86
0.05,0.19,0.97,0.02,-0.32,-0.02,-0.01,0.04,0.18,-0.08,1012.86
0.08,0.19,0.97,0.02,-0.32,-0.02,-0.01,0.04,0.18,-0.08,1012.86
0.09,0.19,0.97,0.02,-0.33,0.11,-0.12,0.04,0.18,-0.08,1012.86
0.091,0.19,0.98,0.01,-0.33,0.11,-0.12,0.04,0.18,-0.08,1012.86
0.091,0.19,0.98,0.01,-0.33,0.11,-0.12,0.03,0.07,-0.01,1012.86
0.128,0.22,0.98,0.03,-0.33,0.11,-0.12,0.03,0.07,-0.01,1012.86
0.128,0.22,0.98,0.03,-0.33,0.11,-0.12,0.00,-0.02,0.01,1012.86
0.129,0.22,0.98,0.03,-0.05,0.09,0.09,0.00,-0.02,0.01,1012.86
0.14,0.22,0.98,0.03,-0.05,0.09,0.09,0.00,-0.02,0.01,1012.87
0.168,0.20,0.96,0.04,-0.05,0.09,0.09,0.00,-0.02,0.01,1012.87
0.169,0.20,0.96,0.04,-0.05,0.09,0.09,0.01,-0.04,-0.02,1012.87
0.169,0.20,0.96,0.04,-0.21,-0.07,0.25,0.01,-0.04,-0.02,1012.87
0.201,0.20,0.96,0.04,-0.21,-0.07,0.25,0.01,-0.04,-0.02,1012.87
0.214,0.21,0.97,0.02,-0.21,-0.07,0.25,0.01,-0.04,-0.02,1012.87
0.216,0.21,0.97,0.02,-0.21,-0.07,0.25,0.04,-0.07,-0.03,1012.87
0.218,0.21,0.97,0.02,-0.17,-0.06,0.03,0.04,-0.07,-0.03,1012.87
0.247,0.24,0.95,0.03,-0.17,-0.06,0.03,0.04,-0.07,-0.03,1012.87
0.25,0.24,0.95,0.03,-0.17,-0.06,0.03,0.05,-0.06,-0.03,1012.87
0.252,0.24,0.95,0.03,0.16,-0.18,0.21,0.05,-0.06,-0.03,1012.87
0.26,0.24,0.95,0.03,0.16,-0.18,0.21,0.05,-0.06,-0.03,1012.87
0.309,0.20,1.01,-0.00,0.16,-0.18,0.21,0.05,-0.06,-0.03,1012.87
0.311,0.20,1.01,-0.00,0.16,-0.18,0.21,0.07,-0.00,-0.06,1012.87
0.312,0.20,1.01,-0.00,-0.21,0.34,-0.13,0.07,-0.00,-0.06,1012.87
0.32,0.20,1.01,-0.00,-0.21,0.34,-0.13,0.07,-0.00,-0.06,1012.87
0.34,0.24,0.96,0.02,-0.21,0.34,-0.13,0.07,-0.00,-0.06,1012.87
0.342,0.24,0.96,0.02,-0.21,0.34,-0.13,0.05,-0.16,-0.07,1012.87
0.343,0.24,0.96,0.02,0.27,-0.12,0.12,0.05,-0.16,-0.07,1012.87
0.365,0.19,0.95,0.02,0.27,-0.12,0.12,0.05,-0.16,-0.07,1012.87
0.366,0.19,0.95,0.02,0.27,-0.12,0.12,0.07,-0.15,-0.16,1012.87
0.367,0.19,0.95,0.02,-0.20,-0.26,0.15,0.07,-0.15,-0.16,1012.87
0.387,0.19,0.95,0.02,-0.20,-0.26,0.15,0.07,-0.15,-0.16,1012.87
0.406,0.17,0.96,0.06,-0.20,-0.26,0.15,0.07,-0.15,-0.16,1012.87
0.409,0.17,0.96,0.06,-0.20,-0.26,0.15,0.12,-0.30,-0.16,1012.87
0.41,0.17,0.96,0.06,-0.29,-0.12,0.64,0.12,-0.30,-0.16,1012.87
0.441,0.17,0.96,0.06,-0.29,-0.12,0.64,0.12,-0.30,-0.16,1012.88
0.444,0.32,0.94,0.09,-0.29,-0.12,0.64,0.12,-0.30,-0.16,1012.88
0.446,0.32,0.94,0.09,-0.29,-0.12,0.64,0.24,-0.31,-0.14,1012.88
0.448,0.32,0.94,0.09,1.15,-0.31,1.00,0.24,-0.31,-0.14,1012.88
0.507,0.26,0.97,0.01,1.15,-0.31,1.00,0.24,-0.31,-0.14,1012.88
0.509,0.26,0.97,0.01,1.15,-0.31,1.00,0.36,-0.07,-0.27,1012.88
0.511,0.26,0.97,0.01,0.71,-0.04,0.37,0.36,-0.07,-0.27,1012.88
0.512,0.26,0.97,0.01,0.71,-0.04,0.37,0.36,-0.07,-0.27,1012.88
0.527,0.17,0.96,-0.00,0.71,-0.04,0.37,0.36,-0.07,-0.27,1012.88
0.53,0.17,0.96,-0.00,0.71,-0.04,0.37,0.42,-0.04,-0.32,1012.88
0.531,0.17,0.96,-0.00,-0.04,-0.13,0.40,0.42,-0.04,-0.32,1012.88
0.56,0.17,0.96,-0.00,-0.04,-0.13,0.40,0.42,-0.04,-0.32,1012.88
0.563,0.04,0.96,-0.02,-0.04,-0.13,0.40,0.42,-0.04,-0.32,1012.88
0.564,0.04,0.96,-0.02,-0.04,-0.13,0.40,0.49,0.07,-0.29,1012.88
0.565,0.04,0.96,-0.02,-1.27,-0.19,0.40,0.49,0.07,-0.29,1012.88
0.603,-0.01,0.94,-0.08,-1.27,-0.19,0.40,0.49,0.07,-0.29,1012.88
0.606,-0.01,0.94,-0.08,-1.27,-0.19,0.40,0.55,-0.10,-0.15,1012.88
0.607,-0.01,0.94,-0.08,-1.67,-0.33,0.05,0.55,-0.10,-0.15,1012.88
0.631,-0.01,0.94,-0.08,-1.67,-0.33,0.05,0.55,-0.10,-0.15,1012.88
0.644,0.07,1.00,-0.17,-1.67,-0.33,0.05,0.55,-0.10,-0.15,1012.88
0.646,0.07,1.00,-0.17,-1.67,-0.33,0.05,0.54,-0.40,0.02,1012.88
0.647,0.07,1.00,-0.17,-0.87,0.22,-0.60,0.54,-0.40,0.02,1012.88
0.691,0.07,1.00,-0.17,-0.87,0.22,-0.60,0.54,-0.40,0.02,1012.87
0.694,0.12,1.01,-0.19,-0.87,0.22,-0.60,0.54,-0.40,0.02,1012.87
0.695,0.12,1.01,-0.19,-0.87,0.22,-0.60,0.48,-0.47,0.07,1012.87
0.697,0.12,1.01,-0.19,-0.34,0.39,-0.62,0.48,-0.47,0.07,1012.87
0.723,0.26,1.01,-0.10,-0.34,0.39,-0.62,0.48,-0.47,0.07,1012.87
0.725,0.26,1.01,-0.10,-0.34,0.39,-0.62,0.44,-0.31,0.05,1012.87
0.726,0.26,1.01,-0.10,1.02,0.35,0.42,0.44,-0.31,0.05,1012.87
0.742,0.26,1.01,-0.10,1.02,0.35,0.42,0.44,-0.31,0.05,1012.86
0.761,0.24,1.03,-0.20,1.02,0.35,0.42,0.44,-0.31,0.05,1012.86
0.764,0.24,1.03,-0.20,1.02,0.35,0.42,0.51,0.04,-0.07,1012.86
0.765,0.24,1.03,-0.20,0.85,0.60,-0.32,0.51,0.04,-0.07,1012.86
0.807,0.21,0.99,-0.31,0.85,0.60,-0.32,0.51,0.04,-0.07,1012.86
0.81,0.21,0.99,-0.31,0.85,0.60,-0.32,0.42,0.12,-0.16,1012.86
0.812,0.21,0.99,-0.31,0.56,0.18,-1.21,0.42,0.12,-0.16,1012.86
0.813,0.21,0.99,-0.31,0.56,0.18,-1.21,0.42,0.12,-0.16,1012.86
0.841,0.07,0.97,-0.24,0.56,0.18,-1.21,0.42,0.12,-0.16,1012.86
0.843,0.07,0.97,-0.24,-0.72,0.04,-0.51,0.42,0.12,-0.16,1012.86
0.844,0.07,0.97,-0.24,-0.72,0.04,-0.51,0.25,0.21,-0.20,1012.86
0.865,0.07,0.97,-0.24,-0.72,0.04,-0.51,0.25,0.21,-0.20,1012.85
0.881,-0.04,0.93,-0.19,-0.72,0.04,-0.51,0.25,0.21,-0.20,1012.85
0.884,-0.04,0.93,-0.19,-0.72,0.04,-0.51,0.21,0.14,-0.12,1012.85
0.885,-0.04,0.93,-0.19,-1.73,-0.37,0.06,0.21,0.14,-0.12,1012.85
0.92,-0.03,0.94,-0.15,-1.73,-0.37,0.06,0.21,0.14,-0.12,1012.85
0.922,-0.03,0.94,-0.15,-1.73,-0.37,0.06,0.26,0.00,0.09,1012.85
0.923,-0.03,0.94,-0.15,-1.73,-0.37,0.06,0.26,0.00,0.09,1012.87
0.923,-0.03,0.94,-0.15,-1.63,-0.27,0.53,0.26,0.00,0.09,1012.87
0.96,-0.13,0.95,-0.16,-1.63,-0.27,0.53,0.26,0.00,0.09,1012.87
0.963,-0.13,0.95,-0.16,-1.63,-0.27,0.53,0.37,-0.04,0.38,1012.87
0.965,-0.13,0.95,-0.16,-2.73,-0.04,0.64,0.37,-0.04,0.38,1012.87
0.981,-0.13,0.95,-0.16,-2.73,-0.04,0.64,0.37,-0.04,0.38,1012.87
1.022,-0.07,0.94,-0.18,-2.73,-0.04,0.64,0.37,-0.04,0.38,1012.87
1.025,-0.07,0.94,-0.18,-2.73,-0.04,0.64,0.51,-0.05,0.72,1012.87
1.026,-0.07,0.94,-0.18,-2.34,-0.11,0.58,0.51,-0.05,0.72,1012.87
1.059,-0.07,0.94,-0.18,-1.14,0.71,-0.52,0.51,-0.05,0.72,1012.87
1.061,0.09,1.01,-0.32,-1.14,0.71,-0.52,0.51,-0.05,0.72,1012.87
1.062,0.09,1.01,-0.32,-1.14,0.71,-0.52,0.64,-0.05,0.94,1012.87
1.063,0.09,1.01,-0.32,-1.14,0.71,-0.52,0.64,-0.05,0.94,1012.86
1.077,0.42,1.11,-0.59,-1.14,0.71,-0.52,0.64,-0.05,0.94,1012.86
1.078,0.42,1.11,-0.59,-1.14,0.71,-0.52,0.45,-0.17,0.97,1012.86
1.079,0.42,1.11,-0.59,1.81,1.75,-2.97,0.45,-0.17,0.97,1012.86
1.104,0.42,1.11,-0.59,1.81,1.75,-2.97,0.45,-0.17,0.97,1012.85
1.121,0.61,1.48,-0.61,1.81,1.75,-2.97,0.45,-0.17,0.97,1012.85
1.122,0.61,1.48,-0.61,1.81,1.75,-2.97,-0.02,-0.03,0.58,1012.85
1.124,0.61,1.48,-0.61,3.37,5.36,-3.13,-0.02,-0.03,0.58,1012.85
1.16,0.46,2.16,-0.23,3.37,5.36,-3.13,-0.02,-0.03,0.58,1012.85
1.163,0.46,2.16,-0.23,3.37,5.36,-3.13,-0.40,0.19,0.00,1012.85
1.165,0.46,2.16,-0.23,1.82,11.79,0.41,-0.40,0.19,0.00,1012.85
1.167,0.46,2.16,-0.23,1.82,11.79,0.41,-0.40,0.19,0.00,1012.86
1.211,-0.78,1.59,0.07,1.82,11.79,0.41,-0.40,0.19,0.00,1012.86
1.214,-0.78,1.59,0.07,1.82,11.79,0.41,-0.45,1.30,-0.36,1012.86
1.216,-0.78,1.59,0.07,-10.16,6.01,3.07,-0.45,1.30,-0.36,1012.86
1.22,-0.78,1.59,0.07,-10.16,6.01,3.07,-0.45,1.30,-0.36,1012.86
1.253,-1.15,1.43,-0.31,-10.16,6.01,3.07,-0.45,1.30,-0.36,1012.86
1.258,-1.15,1.43,-0.31,-10.16,6.01,3.07,0.28,0.93,0.89,1012.86
1.26,-1.15,1.43,-0.31,-13.98,4.54,-0.65,0.28,0.93,0.89,1012.86
1.284,1.37,1.64,-0.54,-13.98,4.54,-0.65,0.28,0.93,0.89,1012.86
1.286,1.37,1.64,-0.54,-13.98,4.54,-0.65,1.37,-0.63,3.86,1012.86
1.287,1.37,1.64,-0.54,9.29,7.12,-2.34,1.37,-0.63,3.86,1012.86
1.287,1.37,1.64,-0.54,9.29,7.12,-2.34,1.37,-0.63,3.86,1012.85
1.319,0.60,1.46,-0.46,9.29,7.12,-2.34,1.37,-0.63,3.86,1012.85
1.322,0.60,1.46,-0.46,9.29,7.12,-2.34,1.55,2.54,2.40,1012.85
1.323,0.60,1.46,-0.46,0.59,5.88,-1.44,1.55,2.54,2.40,1012.85
1.34,0.60,1.46,-0.46,0.59,5.88,-1.44,1.55,2.54,2.40,1012.84
1.355,0.05,1.15,-0.32,0.59,5.88,-1.44,1.55,2.54,2.40,1012.84
1.356,0.05,1.15,-0.32,0.59,5.88,-1.44,1.06,2.85,2.16,1012.84
1.358,0.05,1.15,-0.32,-5.74,3.37,-0.39,1.06,2.85,2.16,1012.84
1.396,0.45,0.58,-0.08,-5.74,3.37,-0.39,1.06,2.85,2.16,1012.84
1.399,0.45,0.58,-0.08,-5.74,3.37,-0.39,0.70,0.05,2.06,1012.84
1.401,0.45,0.58,-0.08,-2.34,-1.54,2.18,0.70,0.05,2.06,1012.84
1.401,0.45,0.58,-0.08,-2.34,-1.54,2.18,0.70,0.05,2.06,1012.83
1.434,0.17,0.25,-0.02,-2.34,-1.54,2.18,0.70,0.05,2.06,1012.83
1.435,0.17,0.25,-0.02,-2.34,-1.54,2.18,0.55,-1.36,0.85,1012.83
1.436,0.17,0.25,-0.02,-5.08,-4.43,3.16,0.55,-1.36,0.85,1012.83
1.461,0.17,0.25,-0.02,-5.08,-4.43,3.16,0.55,-1.36,0.85,1012.83
1.474,0.26,-0.02,0.02,-5.08,-4.43,3.16,0.55,-1.36,0.85,1012.83
1.477,0.26,-0.02,0.02,-5.08,-4.43,3.16,0.22,-1.33,-0.37,1012.83
1.48,0.26,-0.02,0.02,-3.89,-6.99,3.96,0.22,-1.33,-0.37,1012.83
1.515,-0.04,-0.23,0.09,-3.89,-6.99,3.96,0.22,-1.33,-0.37,1012.83
1.518,-0.04,-0.23,0.09,-3.89,-6.99,3.96,-0.27,-0.56,-2.01,1012.83
1.519,-0.04,-0.23,0.09,-6.05,-9.44,4.58,-0.27,-0.56,-2.01,1012.83
1.52,-0.04,-0.23,0.09,-6.05,-9.44,4.58,-0.27,-0.56,-2.01,1012.82
1.554,-0.01,-0.25,0.02,-6.05,-9.44,4.58,-0.27,-0.56,-2.01,1012.82
1.556,-0.01,-0.25,0.02,-4.59,-10.11,3.96,-0.27,-0.56,-2.01,1012.82
1.56,-0.01,-0.25,0.02,-4.59,-10.11,3.96,-0.58,-1.27,-3.05,1012.82
1.585,-0.01,-0.25,0.02,-4.59,-10.11,3.96,-0.58,-1.27,-3.05,1012.82
1.61,0.67,-0.26,-0.43,-4.59,-10.11,3.96,-0.58,-1.27,-3.05,1012.82
1.612,0.67,-0.26,-0.43,-4.59,-10.11,3.96,-0.92,-2.52,-2.99,1012.82
1.613,0.67,-0.26,-0.43,3.32,-10.71,-0.41,-0.92,-2.52,-2.99,1012.82
1.631,1.77,-0.20,-0.63,3.32,-10.71,-0.41,-0.92,-2.52,-2.99,1012.82
1.632,1.77,-0.20,-0.63,3.32,-10.71,-0.41,-1.08,-1.52,-1.68,1012.82
1.633,1.77,-0.20,-0.63,14.61,-10.30,-2.50,-1.08,-1.52,-1.68,1012.82
1.639,1.77,-0.20,-0.63,14.61,-10.30,-2.50,-1.08,-1.52,-1.68,1012.80
1.671,1.83,0.26,-1.39,14.61,-10.30,-2.50,-1.08,-1.52,-1.68,1012.80
1.673,1.83,0.26,-1.39,14.61,-10.30,-2.50,0.19,0.55,-0.14,1012.80
1.675,1.83,0.26,-1.39,14.92,-5.66,-9.75,0.19,0.55,-0.14,1012.80
1.7,1.83,0.26,-1.39,14.92,-5.66,-9.75,0.19,0.55,-0.14,1012.79
1.726,0.02,2.35,-0.36,14.92,-5.66,-9.75,0.19,0.55,-0.14,1012.79
1.731,0.02,2.35,-0.36,14.92,-5.66,-9.75,0.40,1.37,0.23,1012.79
1.734,0.02,2.35,-0.36,-3.06,14.66,0.29,0.40,1.37,0.23,1012.79
1.753,-0.19,0.21,-0.56,-3.06,14.66,0.29,0.40,1.37,0.23,1012.79
1.755,-0.19,0.21,-0.56,-3.06,14.66,0.29,-0.42,-1.52,0.12,1012.79
1.756,-0.19,0.21,-0.56,-4.80,-6.23,-1.57,-0.42,-1.52,0.12,1012.79
1.761,-0.19,0.21,-0.56,-4.80,-6.23,-1.57,-0.42,-1.52,0.12,1012.80
1.79,1.86,0.91,-0.28,-4.80,-6.23,-1.57,-0.42,-1.52,0.12,1012.80
1.792,1.86,0.91,-0.28,-4.80,-6.23,-1.57,-0.26,-0.97,0.99,1012.80
1.794,1.86,0.91,-0.28,14.89,0.66,1.12,-0.26,-0.97,0.99,1012.80
1.825,1.86,0.91,-0.28,14.89,0.66,1.12,-0.26,-0.97,0.99,1012.81
1.829,-0.24,1.17,-0.57,14.89,0.66,1.12,-0.26,-0.97,0.99,1012.81
1.83,-0.24,1.17,-0.57,14.89,0.66,1.12,-0.06,1.10,-1.26,1012.81
1.83,-0.24,1.17,-0.57,-5.35,3.04,-1.81,-0.06,1.10,-1.26,1012.81
1.869,0.52,0.94,-0.47,-5.35,3.04,-1.81,-0.06,1.10,-1.26,1012.81
1.87,0.52,0.94,-0.47,-5.35,3.04,-1.81,-0.40,-0.26,-0.51,1012.81
1.87,0.52,0.94,-0.47,2.25,0.61,-0.90,-0.40,-0.26,-0.51,1012.81
1.881,0.52,0.94,-0.47,2.25,0.61,-0.90,-0.40,-0.26,-0.51,1012.81
1.908,0.27,0.87,-0.43,2.25,0.61,-0.90,-0.40,-0.26,-0.51,1012.81
1.911,0.27,0.87,-0.43,2.25,0.61,-0.90,-0.51,0.28,-0.84,1012.81
1.912,0.27,0.87,-0.43,0.04,-0.16,-0.69,-0.51,0.28,-0.84,1012.81
1.939,0.27,0.87,-0.43,0.04,-0.16,-0.69,-0.51,0.28,-0.84,1012.81
1.947,0.08,0.90,-0.32,0.04,-0.16,-0.69,-0.51,0.28,-0.84,1012.81
1.948,0.08,0.90,-0.32,0.04,-0.16,-0.69,-0.58,0.38,-0.88,1012.81
1.949,0.08,0.90,-0.32,-1.54,-0.12,0.14,-0.58,0.38,-0.88,1012.81
1.99,-0.00,0.86,-0.19,-1.54,-0.12,0.14,-0.58,0.38,-0.88,1012.81
1.993,-0.00,0.86,-0.19,-1.54,-0.12,0.14,-0.55,0.04,-0.69,1012.81
1.994,-0.00,0.86,-0.19,-2.08,-0.55,1.15,-0.55,0.04,-0.69,1012.81
2.004,-0.00,0.86,-0.19,-2.08,-0.55,1.15,-0.55,0.04,-0.69,1012.81
2.026,-0.08,0.83,-0.12,-2.08,-0.55,1.15,-0.55,0.04,-0.69,1012.81
2.027,-0.08,0.83,-0.12,-2.08,-0.55,1.15,-0.33,0.17,-0.39,1012.81
2.028,-0.08,0.83,-0.12,-2.68,-0.97,1.72,-0.33,0.17,-0.39,1012.81
2.059,-0.08,0.83,-0.12,-2.68,-0.97,1.72,-0.33,0.17,-0.39,1012.82
2.068,-0.20,0.92,-0.06,-2.68,-0.97,1.72,-0.33,0.17,-0.39,1012.82
2.07,-0.20,0.92,-0.06,-2.68,-0.97,1.72,0.01,0.10,0.04,1012.82
2.072,-0.20,0.92,-0.06,-3.85,-0.04,2.20,0.01,0.10,0.04,1012.82
2.11,-0.08,1.15,-0.47,-3.85,-0.04,2.20,0.01,0.10,0.04,1012.82
2.114,-0.08,1.15,-0.47,-3.85,-0.04,2.20,0.30,-0.20,0.51,1012.82
2.116,-0.08,1.15,-0.47,-2.78,2.25,-1.64,0.30,-0.20,0.51,1012.82
2.119,-0.08,1.15,-0.47,-2.78,2.25,-1.64,0.30,-0.20,0.51,1012.83
2.145,0.56,1.16,-0.58,-2.78,2.25,-1.64,0.30,-0.20,0.51,1012.83
2.147,0.56,1.16,-0.58,-2.78,2.25,-1.64,0.04,-0.11,0.73,1012.83
2.148,0.56,1.16,-0.58,3.18,2.38,-2.60,0.04,-0.11,0.73,1012.83
2.196,0.56,1.16,-0.58,3.18,2.38,-2.60,0.04,-0.11,0.73,1012.82
2.199,0.55,1.27,-0.46,3.18,2.38,-2.60,0.04,-0.11,0.73,1012.82
2.2,0.55,1.27,-0.46,3.18,2.38,-2.60,-0.31,0.56,0.22,1012.82
2.201,0.55,1.27,-0.46,2.96,3.41,-1.61,-0.31,0.56,0.22,1012.82
2.231,0.38,1.70,-0.27,2.96,3.41,-1.61,-0.31,0.56,0.22,1012.82
2.233,0.38,1.70,-0.27,2.96,3.41,-1.61,-0.67,0.76,-0.17,1012.82
2.235,0.38,1.70,-0.27,1.20,7.38,-0.04,-0.67,0.76,-0.17,1012.82
2.239,0.38,1.70,-0.27,1.20,7.38,-0.04,-0.67,0.76,-0.17,1012.82
2.264,-0.44,1.56,-0.09,1.20,7.38,-0.04,-0.67,0.76,-0.17,1012.82
2.267,-0.44,1.56,-0.09,1.20,7.38,-0.04,-0.85,0.38,-0.32,1012.82
2.269,-0.44,1.56,-0.09,-6.60,5.78,1.37,-0.85,0.38,-0.32,1012.82
2.315,-0.44,1.56,-0.09,-6.60,5.78,1.37,-0.85,0.38,-0.32,1012.82
2.32,-0.69,1.21,-0.19,-6.60,5.78,1.37,-0.85,0.38,-0.32,1012.82
2.32,-0.69,1.21,-0.19,-6.60,5.78,1.37,-0.25,0.44,0.63,1012.82
2.321,-0.69,1.21,-0.19,-9.18,2.35,0.24,-0.25,0.44,0.63,1012.82
2.406,0.48,1.75,-0.65,-9.18,2.35,0.24,-0.25,0.44,0.63,1012.82
2.409,0.48,1.75,-0.65,1.07,8.03,-3.68,-0.25,0.44,0.63,1012.82
2.411,0.48,1.75,-0.65,1.07,8.03,-3.68,1.16,-0.82,3.42,1012.82
2.413,0.48,1.75,-0.65,1.07,8.03,-3.68,1.16,-0.82,3.42,1012.82
2.414,0.93,1.40,-0.43,1.07,8.03,-3.68,1.16,-0.82,3.42,1012.82
2.416,0.93,1.40,-0.43,1.07,8.03,-3.68,1.54,-0.50,3.87,1012.82
2.418,0.93,1.40,-0.43,4.13,5.39,-0.92,1.54,-0.50,3.87,1012.82
2.42,0.93,1.40,-0.43,4.13,5.39,-0.92,1.54,-0.50,3.87,1012.82
2.421,0.60,1.20,-0.39,4.13,5.39,-0.92,1.54,-0.50,3.87,1012.82
2.422,0.60,1.20,-0.39,4.13,5.39,-0.92,1.41,1.83,2.92,1012.82
2.424,0.60,1.20,-0.39,-0.21,4.14,-0.47,1.41,1.83,2.92,1012.82
2.46,0.60,1.20,-0.39,-4.86,2.77,0.67,1.41,1.83,2.92,1012.82
2.464,0.21,0.99,-0.25,-4.86,2.77,0.67,1.41,1.83,2.92,1012.82
2.464,0.21,0.99,-0.25,-4.86,2.77,0.67,0.92,1.85,2.24,1012.82
2.491,0.21,0.99,-0.25,-4.86,2.77,0.67,0.92,1.85,2.24,1012.82
2.5,0.00,0.51,-0.08,-4.86,2.77,0.67,0.92,1.85,2.24,1012.82
2.501,0.00,0.51,-0.08,-4.86,2.77,0.67,0.50,0.10,1.63,1012.82
2.502,0.00,0.51,-0.08,-7.20,-1.43,2.39,0.50,0.10,1.63,1012.82
2.546,0.00,0.51,-0.08,-6.07,-3.55,3.84,0.50,0.10,1.63,1012.82
2.55,0.11,0.26,0.03,-6.07,-3.55,3.84,0.50,0.10,1.63,1012.82
2.551,0.11,0.26,0.03,-6.07,-3.55,3.84,0.38,-1.14,0.71,1012.82
2.552,0.11,0.26,0.03,-6.07,-3.55,3.84,0.38,-1.14,0.71,1012.81
2.584,0.15,0.04,0.08,-6.07,-3.55,3.84,0.38,-1.14,0.71,1012.81
2.585,0.15,0.04,0.08,-6.07,-3.55,3.84,0.15,-0.99,-0.73,1012.81
2.586,0.15,0.04,0.08,-5.28,-5.81,4.50,0.15,-0.99,-0.73,1012.81
2.607,0.15,0.04,0.08,-5.28,-5.81,4.50,0.15,-0.99,-0.73,1012.80
2.618,0.09,-0.11,0.06,-5.28,-5.81,4.50,0.15,-0.99,-0.73,1012.80
2.619,0.09,-0.11,0.06,-5.28,-5.81,4.50,-0.22,-0.49,-2.21,1012.80
2.62,0.09,-0.11,0.06,-5.19,-7.73,4.35,-0.22,-0.49,-2.21,1012.80
2.659,0.15,-0.19,-0.01,-5.19,-7.73,4.35,-0.22,-0.49,-2.21,1012.80
2.663,0.15,-0.19,-0.01,-5.19,-7.73,4.35,-0.52,-1.01,-3.21,1012.80
2.665,0.15,-0.19,-0.01,-3.45,-9.17,3.65,-0.52,-1.01,-3.21,1012.80
2.667,0.15,-0.19,-0.01,-3.45,-9.17,3.65,-0.52,-1.01,-3.21,1012.78
2.713,0.70,-0.20,-0.53,-3.45,-9.17,3.65,-0.52,-1.01,-3.21,1012.78
2.717,0.70,-0.20,-0.53,-3.45,-9.17,3.65,-0.71,-2.37,-3.03,1012.78
2.718,0.70,-0.20,-0.53,3.15,-9.73,-1.24,-0.71,-2.37,-3.03,1012.78
2.72,0.70,-0.20,-0.53,3.15,-9.73,-1.24,-0.71,-2.37,-3.03,1012.78
2.748,1.54,-0.22,-0.61,3.15,-9.73,-1.24,-0.71,-2.37,-3.03,1012.78
2.75,1.54,-0.22,-0.61,3.15,-9.73,-1.24,-0.76,-1.65,-1.75,1012.78
2.751,1.54,-0.22,-0.61,11.98,-10.08,-1.97,-0.76,-1.65,-1.75,1012.78
2.787,2.18,0.74,-1.25,11.98,-10.08,-1.97,-0.76,-1.65,-1.75,1012.78
2.789,2.18,0.74,-1.25,11.98,-10.08,-1.97,0.56,0.06,-0.23,1012.78
2.79,2.18,0.74,-1.25,11.98,-10.08,-1.97,0.56,0.06,-0.23,1012.77
2.792,2.18,0.74,-1.25,17.99,-0.59,-7.96,0.56,0.06,-0.23,1012.77
2.814,0.04,2.22,-0.49,17.99,-0.59,-7.96,0.56,0.06,-0.23,1012.77
2.815,0.04,2.22,-0.49,17.99,-0.59,-7.96,0.28,2.41,-0.40,1012.77
2.815,0.04,2.22,-0.49,-3.22,13.71,-0.72,0.28,2.41,-0.40,1012.77
2.837,0.04,2.22,-0.49,-3.22,13.71,-0.72,0.28,2.41,-0.40,1012.78
2.855,-0.84,-0.29,-0.55,-3.22,13.71,-0.72,0.28,2.41,-0.40,1012.78
2.856,-0.84,-0.29,-0.55,-3.22,13.71,-0.72,-0.32,-1.00,-0.56,1012.78
2.857,-0.84,-0.29,-0.55,-11.26,-10.92,-1.32,-0.32,-1.00,-0.56,1012.78
2.895,2.25,1.29,-0.60,-11.26,-10.92,-1.32,-0.32,-1.00,-0.56,1012.78
2.896,2.25,1.29,-0.60,-11.26,-10.92,-1.32,-0.10,-1.18,1.44,1012.78
2.897,2.25,1.29,-0.60,-11.26,-10.92,-1.32,-0.10,-1.18,1.44,1012.79
2.898,2.25,1.29,-0.60,18.40,4.66,-1.67,-0.10,-1.18,1.44,1012.79
2.935,-0.34,0.92,-0.50,18.40,4.66,-1.67,-0.10,-1.18,1.44,1012.79
2.937,-0.34,0.92,-0.50,18.40,4.66,-1.67,-0.42,1.13,-1.53,1012.79
2.939,-0.34,0.92,-0.50,-6.56,0.76,-0.96,-0.42,1.13,-1.53,1012.79
2.958,-0.34,0.92,-0.50,-6.56,0.76,-0.96,-0.42,1.13,-1.53,1012.80
2.974,0.60,0.97,-0.40,-6.56,0.76,-0.96,-0.42,1.13,-1.53,1012.80
2.976,0.60,0.97,-0.40,-6.56,0.76,-0.96,-0.54,-0.44,-0.41,1012.80
2.978,0.60,0.97,-0.40,2.80,1.15,-0.11,-0.54,-0.44,-0.41,1012.80
3.016,0.43,0.86,-0.34,2.80,1.15,-0.11,-0.54,-0.44,-0.41,1012.80
3.02,0.43,0.86,-0.34,2.80,1.15,-0.11,-0.53,0.08,-0.86,1012.80
3.021,0.43,0.86,-0.34,1.40,-0.16,0.36,-0.53,0.08,-0.86,1012.80
3.022,0.43,0.86,-0.34,1.40,-0.16,0.36,-0.53,0.08,-0.86,1012.78
3.056,0.15,0.85,-0.38,1.40,-0.16,0.36,-0.53,0.08,-0.86,1012.78
3.059,0.15,0.85,-0.38,1.40,-0.16,0.36,-0.48,0.57,-1.05,1012.78
3.06,0.15,0.85,-0.38,-0.99,-0.44,-0.24,-0.48,0.57,-1.05,1012.78
3.078,0.15,0.85,-0.38,-0.99,-0.44,-0.24,-0.48,0.57,-1.05,1012.78
3.104,0.15,0.85,-0.38,-2.73,-0.46,0.99,-0.48,0.57,-1.05,1012.78
3.107,-0.06,0.86,-0.23,-2.73,-0.46,0.99,-0.48,0.57,-1.05,1012.78
3.108,-0.06,0.86,-0.23,-2.73,-0.46,0.99,-0.45,0.35,-0.94,1012.78
3.132,-0.09,0.83,-0.17,-2.73,-0.46,0.99,-0.45,0.35,-0.94,1012.78
3.134,-0.09,0.83,-0.17,-2.73,-0.46,0.99,-0.28,0.10,-0.55,1012.78
3.135,-0.09,0.83,-0.17,-2.86,-0.76,1.42,-0.28,0.10,-0.55,1012.78
3.136,-0.09,0.83,-0.17,-2.86,-0.76,1.42,-0.28,0.10,-0.55,1012.78
3.173,-0.17,0.86,-0.16,-2.86,-0.76,1.42,-0.28,0.10,-0.55,1012.78
3.176,-0.17,0.86,-0.16,-2.86,-0.76,1.42,-0.08,-0.01,-0.10,1012.78
3.178,-0.17,0.86,-0.16,-3.49,-0.53,1.48,-0.08,-0.01,-0.10,1012.78
3.216,-0.17,0.86,-0.16,-3.49,-0.53,1.48,-0.08,-0.01,-0.10,1012.78
3.22,-0.17,0.86,-0.16,-1.82,1.08,-0.74,-0.08,-0.01,-0.10,1012.78
3.223,0.01,1.02,-0.39,-1.82,1.08,-0.74,-0.08,-0.01,-0.10,1012.78
3.223,0.01,1.02,-0.39,-1.82,1.08,-0.74,0.08,-0.49,0.35,1012.78
3.257,0.36,1.12,-0.44,-1.82,1.08,-0.74,0.08,-0.49,0.35,1012.78
3.263,0.36,1.12,-0.44,-1.82,1.08,-0.74,0.02,-0.23,0.47,1012.78
3.265,0.36,1.12,-0.44,1.49,2.02,-1.18,0.02,-0.23,0.47,1012.78
3.266,0.36,1.12,-0.44,1.49,2.02,-1.18,0.02,-0.23,0.47,1012.78
3.29,0.49,1.31,-0.55,1.49,2.02,-1.18,0.02,-0.23,0.47,1012.78
3.291,0.49,1.31,-0.55,1.49,2.02,-1.18,-0.19,0.29,0.19,1012.78
3.292,0.49,1.31,-0.55,2.62,3.85,-2.27,-0.19,0.29,0.19,1012.78
3.318,0.49,1.31,-0.55,2.62,3.85,-2.27,-0.19,0.29,0.19,1012.78
3.33,0.64,1.53,-0.30,2.62,3.85,-2.27,-0.19,0.29,0.19,1012.78
3.332,0.64,1.53,-0.30,2.62,3.85,-2.27,-0.56,0.74,-0.30,1012.78
3.334,0.64,1.53,-0.30,4.04,5.81,-0.10,-0.56,0.74,-0.30,1012.78
3.37,-0.47,1.70,-0.13,4.04,5.81,-0.10,-0.56,0.74,-0.30,1012.78
3.373,-0.47,1.70,-0.13,4.04,5.81,-0.10,-0.72,1.11,-0.87,1012.78
3.375,-0.47,1.70,-0.13,-6.56,7.21,1.19,-0.72,1.11,-0.87,1012.78
3.381,-0.47,1.70,-0.13,-6.56,7.21,1.19,-0.72,1.11,-0.87,1012.77
3.431,-1.17,1.36,-0.05,-6.56,7.21,1.19,-0.72,1.11,-0.87,1012.77
3.435,-1.17,1.36,-0.05,-6.56,7.21,1.19,-0.61,0.60,0.12,1012.77
3.437,-1.17,1.36,-0.05,-13.26,3.75,1.66,-0.61,0.60,0.12,1012.77
3.439,-1.17,1.36,-0.05,-13.26,3.75,1.66,-0.61,0.60,0.12,1012.77
3.49,-1.17,1.36,-0.05,0.96,6.01,-3.69,-0.61,0.60,0.12,1012.77
3.493,0.38,1.57,-0.64,0.96,6.01,-3.69,-0.61,0.60,0.12,1012.77
3.495,0.38,1.57,-0.64,0.96,6.01,-3.69,0.62,-0.90,2.92,1012.77
3.497,1.13,1.45,-0.44,0.96,6.01,-3.69,0.62,-0.90,2.92,1012.77
3.5,1.13,1.45,-0.44,0.96,6.01,-3.69,1.26,-0.55,3.67,1012.77
3.502,1.13,1.45,-0.44,6.93,5.40,-1.22,1.26,-0.55,3.67,1012.77
3.504,1.13,1.45,-0.44,6.93,5.40,-1.22,1.26,-0.55,3.67,1012.76
3.546,1.13,1.45,-0.44,-2.50,4.07,-1.13,1.26,-0.55,3.67,1012.76
3.55,0.28,1.25,-0.44,-2.50,4.07,-1.13,1.26,-0.55,3.67,1012.76
3.552,0.28,1.25,-0.44,-2.50,4.07,-1.13,1.29,1.80,2.68,1012.76
3.557,0.28,1.25,-0.44,-2.50,4.07,-1.13,1.29,1.80,2.68,1012.74
3.599,0.25,1.03,-0.24,-2.50,4.07,-1.13,1.29,1.80,2.68,1012.74
3.601,0.25,1.03,-0.24,-2.50,4.07,-1.13,0.91,1.80,2.67,1012.74
3.602,0.25,1.03,-0.24,-3.83,2.52,0.74,0.91,1.80,2.67,1012.74
3.607,0.26,0.69,-0.14,-3.83,2.52,0.74,0.91,1.80,2.67,1012.74
3.608,0.26,0.69,-0.14,-3.83,2.52,0.74,0.68,0.69,2.27,1012.74
3.609,0.26,0.69,-0.14,-4.33,-0.06,1.66,0.68,0.69,2.27,1012.74
3.617,0.26,0.69,-0.14,-4.33,-0.06,1.66,0.68,0.69,2.27,1012.74
3.646,0.00,0.45,-0.15,-4.33,-0.06,1.66,0.68,0.69,2.27,1012.74
3.65,0.00,0.45,-0.15,-4.33,-0.06,1.66,0.59,-0.39,1.32,1012.74
3.652,0.00,0.45,-0.15,-7.07,-1.94,1.83,0.59,-0.39,1.32,1012.74
3.68,0.00,0.45,-0.15,-7.07,-1.94,1.83,0.59,-0.39,1.32,1012.74
3.684,0.03,0.22,-0.07,-7.07,-1.94,1.83,0.59,-0.39,1.32,1012.74
3.685,0.03,0.22,-0.07,-7.07,-1.94,1.83,0.38,-1.10,0.21,1012.74
3.686,0.03,0.22,-0.07,-6.56,-4.03,2.92,0.38,-1.10,0.21,1012.74
3.73,0.09,-0.04,-0.02,-6.56,-4.03,2.92,0.38,-1.10,0.21,1012.74
3.734,0.09,-0.04,-0.02,-6.56,-4.03,2.92,0.10,-0.94,-1.14,1012.74
3.735,0.09,-0.04,-0.02,-5.49,-6.78,3.63,0.10,-0.94,-1.14,1012.74
3.74,0.09,-0.04,-0.02,-5.49,-6.78,3.63,0.10,-0.94,-1.14,1012.74
3.78,0.06,-0.12,-0.11,-5.49,-6.78,3.63,0.10,-0.94,-1.14,1012.74
3.784,0.06,-0.12,-0.11,-4.89,-7.98,2.94,0.10,-0.94,-1.14,1012.74
3.786,0.06,-0.12,-0.11,-4.89,-7.98,2.94,-0.04,-1.01,-2.41,1012.74
3.796,0.06,-0.12,-0.11,-4.89,-7.98,2.94,-0.04,-1.01,-2.41,1012.72
3.814,0.38,-0.17,-0.22,-4.89,-7.98,2.94,-0.04,-1.01,-2.41,1012.72
3.819,0.38,-0.17,-0.22,-4.89,-7.98,2.94,-0.18,-1.37,-3.09,1012.72
3.82,0.38,-0.17,-0.22,-0.68,-8.92,2.02,-0.18,-1.37,-3.09,1012.72
3.844,0.38,-0.17,-0.22,4.11,-9.11,-1.25,-0.18,-1.37,-3.09,1012.72
3.846,0.76,-0.15,-0.58,4.11,-9.11,-1.25,-0.18,-1.37,-3.09,1012.72
3.846,0.76,-0.15,-0.58,4.11,-9.11,-1.25,-0.28,-1.76,-2.81,1012.72
3.855,0.76,-0.15,-0.58,4.11,-9.11,-1.25,-0.28,-1.76,-2.81,1012.70
3.882,1.46,-0.33,-0.60,4.11,-9.11,-1.25,-0.28,-1.76,-2.81,1012.70
3.883,1.46,-0.33,-0.60,4.11,-9.11,-1.25,-0.20,-1.59,-1.58,1012.70
3.883,1.46,-0.33,-0.60,11.59,-10.87,-1.33,-0.20,-1.59,-1.58,1012.70
3.922,1.46,-0.33,-0.60,11.59,-10.87,-1.33,-0.20,-1.59,-1.58,1012.69
3.926,2.64,2.10,-1.25,11.59,-10.87,-1.33,-0.20,-1.59,-1.58,1012.69
3.928,2.64,2.10,-1.25,11.59,-10.87,-1.33,1.06,0.78,0.05,1012.69
3.93,2.64,2.10,-1.25,22.57,12.92,-7.35,1.06,0.78,0.05,1012.69
3.967,2.64,2.10,-1.25,-14.91,7.10,-0.75,1.06,0.78,0.05,1012.69
3.972,-1.19,1.54,-0.53,-14.91,7.10,-0.75,1.06,0.78,0.05,1012.69
3.974,-1.19,1.54,-0.53,-14.91,7.10,-0.75,-0.34,2.95,-0.95,1012.69
3.979,-1.19,1.54,-0.53,-14.91,7.10,-0.75,-0.34,2.95,-0.95,1012.70
4.015,-0.02,-0.60,-0.35,-14.91,7.10,-0.75,-0.34,2.95,-0.95,1012.70
4.019,-0.02,-0.60,-0.35,-14.91,7.10,-0.75,-0.38,-1.95,0.32,1012.70
4.019,-0.02,-0.60,-0.35,-3.14,-13.67,1.05,-0.38,-1.95,0.32,1012.70
4.054,-0.02,-0.60,-0.35,-3.14,-13.67,1.05,-0.38,-1.95,0.32,1012.72
4.056,2.30,1.54,-0.76,-3.14,-13.67,1.05,-0.38,-1.95,0.32,1012.72
4.059,2.30,1.54,-0.76,-3.14,-13.67,1.05,-0.11,-0.82,1.21,1012.72
4.06,2.30,1.54,-0.76,19.01,7.31,-2.79,-0.11,-0.82,1.21,1012.72
4.081,-0.72,0.75,-0.40,19.01,7.31,-2.79,-0.11,-0.82,1.21,1012.72
4.084,-0.72,0.75,-0.40,19.01,7.31,-2.79,-0.44,1.35,-1.69,1012.72
4.085,-0.72,0.75,-0.40,-10.10,-0.74,0.41,-0.44,1.35,-1.69,1012.72
4.098,-0.72,0.75,-0.40,-10.10,-0.74,0.41,-0.44,1.35,-1.69,1012.73
4.119,0.76,0.97,-0.54,-10.10,-0.74,0.41,-0.44,1.35,-1.69,1012.73
4.122,0.76,0.97,-0.54,-10.10,-0.74,0.41,-0.36,-0.98,-0.15,1012.73
4.123,0.76,0.97,-0.54,4.56,1.37,-0.96,-0.36,-0.98,-0.15,1012.73
4.155,0.76,0.97,-0.54,4.56,1.37,-0.96,-0.36,-0.98,-0.15,1012.74
4.16,0.56,0.83,-0.37,4.56,1.37,-0.96,-0.36,-0.98,-0.15,1012.74
4.162,0.56,0.83,-0.37,4.56,1.37,-0.96,-0.52,-0.10,-0.86,1012.74
4.164,0.56,0.83,-0.37,2.85,-0.15,0.50,-0.52,-0.10,-0.86,1012.74
4.202,0.03,0.91,-0.48,2.85,-0.15,0.50,-0.52,-0.10,-0.86,1012.74
4.205,0.03,0.91,-0.48,2.85,-0.15,0.50,-0.46,0.66,-1.15,1012.74
4.207,0.03,0.91,-0.48,-2.07,0.38,-0.75,-0.46,0.66,-1.15,1012.74
4.237,0.03,0.91,-0.48,-2.07,0.38,-0.75,-0.46,0.66,-1.15,1012.73
4.24,-0.08,0.86,-0.37,-2.07,0.38,-0.75,-0.46,0.66,-1.15,1012.73
4.242,-0.08,0.86,-0.37,-2.07,0.38,-0.75,-0.52,0.30,-0.95,1012.73
4.244,-0.08,0.86,-0.37,-2.81,-0.28,0.16,-0.52,0.30,-0.95,1012.73
4.276,-0.08,0.86,-0.37,-2.81,-0.28,0.16,-0.52,0.30,-0.95,1012.72
4.282,0.02,0.83,-0.34,-2.81,-0.28,0.16,-0.52,0.30,-0.95,1012.72
4.284,0.02,0.83,-0.34,-2.81,-0.28,0.16,-0.47,-0.10,-0.71,1012.72
4.286,0.02,0.83,-0.34,-1.57,-0.66,0.21,-0.47,-0.10,-0.71,1012.72
4.331,0.02,0.87,-0.21,-1.57,-0.66,0.21,-0.47,-0.10,-0.71,1012.72
4.334,0.02,0.87,-0.21,-1.57,-0.66,0.21,-0.39,-0.04,-0.52,1012.72
4.336,0.02,0.87,-0.21,-1.36,-0.30,1.40,-0.39,-0.04,-0.52,1012.72
4.338,0.02,0.87,-0.21,-1.36,-0.30,1.40,-0.39,-0.04,-0.52,1012.71
4.373,-0.10,0.95,-0.20,-1.36,-0.30,1.40,-0.39,-0.04,-0.52,1012.71
4.379,-0.10,0.95,-0.20,-1.36,-0.30,1.40,-0.18,0.01,-0.25,1012.71
4.38,-0.10,0.95,-0.20,-2.41,0.40,1.41,-0.18,0.01,-0.25,1012.71
4.416,-0.13,0.97,-0.28,-2.41,0.40,1.41,-0.18,0.01,-0.25,1012.71
4.422,-0.13,0.97,-0.28,-2.69,0.54,0.55,-0.18,0.01,-0.25,1012.71
4.422,-0.13,0.97,-0.28,-2.69,0.54,0.55,0.04,0.13,0.12,1012.71
4.423,-0.13,0.97,-0.28,-2.69,0.54,0.55,0.04,0.13,0.12,1012.71
4.435,0.17,1.02,-0.34,-2.69,0.54,0.55,0.04,0.13,0.12,1012.71
4.436,0.17,1.02,-0.34,-2.69,0.54,0.55,0.11,0.08,0.41,1012.71
4.437,0.17,1.02,-0.34,0.12,1.11,0.03,0.11,0.08,0.41,1012.71
4.455,0.17,1.02,-0.34,0.12,1.11,0.03,0.11,0.08,0.41,1012.71
4.475,0.09,1.11,-0.64,0.12,1.11,0.03,0.11,0.08,0.41,1012.71
4.476,0.09,1.11,-0.64,0.12,1.11,0.03,-0.02,0.32,0.32,1012.71
4.476,0.09,1.11,-0.64,-0.82,2.01,-2.90,-0.02,0.32,0.32,1012.71
4.515,0.44,1.27,-0.45,-0.82,2.01,-2.90,-0.02,0.32,0.32,1012.71
4.516,0.44,1.27,-0.45,-0.82,2.01,-2.90,-0.47,0.06,0.29,1012.71
4.517,0.44,1.27,-0.45,2.44,3.38,-1.18,-0.47,0.06,0.29,1012.71
4.517,0.44,1.27,-0.45,2.44,3.38,-1.18,-0.47,0.06,0.29,1012.70
4.554,0.41,1.62,-0.22,2.44,3.38,-1.18,-0.47,0.06,0.29,1012.70
4.556,0.41,1.62,-0.22,2.44,3.38,-1.18,-0.69,0.23,-0.16,1012.70
4.556,0.41,1.62,-0.22,2.16,6.61,0.79,-0.69,0.23,-0.16,1012.70
4.576,0.41,1.62,-0.22,2.16,6.61,0.79,-0.69,0.23,-0.16,1012.70
4.599,-0.41,1.80,-0.08,2.16,6.61,0.79,-0.69,0.23,-0.16,1012.70
4.602,-0.41,1.80,-0.08,2.16,6.61,0.79,-0.73,0.57,-0.49,1012.70
4.605,-0.41,1.80,-0.08,-5.67,8.13,1.88,-0.73,0.57,-0.49,1012.70
4.634,-0.98,1.06,-0.08,-5.67,8.13,1.88,-0.73,0.57,-0.49,1012.70
4.635,-0.98,1.06,-0.08,-5.67,8.13,1.88,-0.54,0.63,0.35,1012.70
4.636,-0.98,1.06,-0.08,-11.27,0.83,1.56,-0.54,0.63,0.35,1012.70
4.637,-0.98,1.06,-0.08,-11.27,0.83,1.56,-0.54,0.63,0.35,1012.71
4.675,0.38,1.54,-0.76,-11.27,0.83,1.56,-0.54,0.63,0.35,1012.71
4.678,0.38,1.54,-0.76,-11.27,0.83,1.56,0.62,-1.93,3.14,1012.71
4.679,0.38,1.54,-0.76,1.10,5.79,-4.59,0.62,-1.93,3.14,1012.71
4.695,0.38,1.54,-0.76,1.10,5.79,-4.59,0.62,-1.93,3.14,1012.72
4.727,1.03,1.36,-0.30,1.10,5.79,-4.59,0.62,-1.93,3.14,1012.72
4.731,1.03,1.36,-0.30,1.10,5.79,-4.59,0.94,-1.39,3.52,1012.72
4.733,1.03,1.36,-0.30,6.25,4.54,0.38,0.94,-1.39,3.52,1012.72
4.761,0.51,1.28,-0.44,6.25,4.54,0.38,0.94,-1.39,3.52,1012.72
4.765,0.51,1.28,-0.44,6.25,4.54,0.38,1.37,2.23,2.61,1012.72
4.769,0.51,1.28,-0.44,-0.03,4.28,-0.90,1.37,2.23,2.61,1012.72
4.77,0.51,1.28,-0.44,-0.03,4.28,-0.90,1.37,2.23,2.61,1012.71
4.791,0.08,1.04,-0.28,-0.03,4.28,-0.90,1.37,2.23,2.61,1012.71
4.792,0.08,1.04,-0.28,-0.03,4.28,-0.90,1.06,3.02,2.31,1012.71
4.793,0.08,1.04,-0.28,-5.24,2.56,0.32,1.06,3.02,2.31,1012.71
4.815,0.08,1.04,-0.28,-5.24,2.56,0.32,1.06,3.02,2.31,1012.69
4.841,0.11,0.72,-0.14,-5.24,2.56,0.32,1.06,3.02,2.31,1012.69
4.846,0.11,0.72,-0.14,-5.24,2.56,0.32,0.68,1.33,2.22,1012.69
4.849,0.11,0.72,-0.14,-5.70,0.09,1.55,0.68,1.33,2.22,1012.69
4.871,0.04,0.47,-0.13,-5.70,0.09,1.55,0.68,1.33,2.22,1012.69
4.875,0.04,0.47,-0.13,-5.70,0.09,1.55,0.58,-0.29,1.47,1012.69
4.877,0.04,0.47,-0.13,-6.57,-1.85,1.80,0.58,-0.29,1.47,1012.69
4.878,0.04,0.47,-0.13,-6.57,-1.85,1.80,0.58,-0.29,1.47,1012.69
4.915,0.24,0.33,-0.16,-6.57,-1.85,1.80,0.58,-0.29,1.47,1012.69
4.918,0.24,0.33,-0.16,-6.57,-1.85,1.80,0.66,-0.92,0.36,1012.69
4.919,0.24,0.33,-0.16,-4.55,-2.99,1.88,0.66,-0.92,0.36,1012.69
4.934,0.24,0.33,-0.16,-4.55,-2.99,1.88,0.66,-0.92,0.36,1012.69
4.948,0.28,0.10,-0.13,-4.55,-2.99,1.88,0.66,-0.92,0.36,1012.69
4.949,0.28,0.10,-0.13,-4.55,-2.99,1.88,0.49,-0.36,-1.04,1012.69
4.95,0.28,0.10,-0.13,-3.73,-5.35,2.39,0.49,-0.36,-1.04,1012.69
4.99,0.10,-0.10,-0.19,-3.73,-5.35,2.39,0.49,-0.36,-1.04,1012.69
4.991,0.10,-0.10,-0.19,-3.73,-5.35,2.39,0.45,-0.37,-2.37,1012.69
4.992,0.10,-0.10,-0.19,-4.82,-7.71,1.99,0.45,-0.37,-2.37,1012.69
5.01,0.10,-0.10,-0.19,-4.82,-7.71,1.99,0.45,-0.37,-2.37,1012.68
5.058,0.10,-0.10,-0.19,-0.88,-8.50,2.45,0.45,-0.37,-2.37,1012.68
5.061,0.39,-0.14,-0.17,-0.88,-8.50,2.45,0.45,-0.37,-2.37,1012.68
5.062,0.39,-0.14,-0.17,-0.88,-8.50,2.45,0.54,-0.81,-3.14,1012.68
5.066,0.39,-0.14,-0.17,-0.88,-8.50,2.45,0.54,-0.81,-3.14,1012.67
5.068,0.57,-0.14,-0.35,-0.88,-8.50,2.45,0.54,-0.81,-3.14,1012.67
5.069,0.57,-0.14,-0.35,-0.88,-8.50,2.45,0.51,-0.82,-3.33,1012.67
5.071,0.57,-0.14,-0.35,1.91,-8.81,0.92,0.51,-0.82,-3.33,1012.67
5.107,1.10,0.03,-0.27,1.91,-8.81,0.92,0.51,-0.82,-3.33,1012.67
5.109,1.10,0.03,-0.27,7.87,-7.37,1.74,0.51,-0.82,-3.33,1012.67
5.111,1.10,0.03,-0.27,7.87,-7.37,1.74,0.05,-0.40,-2.57,1012.67
5.135,1.10,0.03,-0.27,7.87,-7.37,1.74,0.05,-0.40,-2.57,1012.66
5.147,1.34,0.39,-1.09,7.87,-7.37,1.74,0.05,-0.40,-2.57,1012.66
5.149,1.34,0.39,-1.09,7.87,-7.37,1.74,0.17,0.51,-1.48,1012.66
5.15,1.34,0.39,-1.09,10.37,-3.94,-6.16,0.17,0.51,-1.48,1012.66
5.174,1.34,0.39,-1.09,10.37,-3.94,-6.16,0.17,0.51,-1.48,1012.66
5.188,1.34,0.39,-1.09,2.62,21.08,2.87,0.17,0.51,-1.48,1012.66
5.191,0.63,2.96,-0.15,2.62,21.08,2.87,0.17,0.51,-1.48,1012.66
5.192,0.63,2.96,-0.15,2.62,21.08,2.87,-0.28,0.22,2.21,1012.66
5.233,-0.26,-0.81,-0.54,2.62,21.08,2.87,-0.28,0.22,2.21,1012.66
5.239,-0.26,-0.81,-0.54,2.62,21.08,2.87,-0.27,-1.21,0.12,1012.66
5.239,-0.26,-0.81,-0.54,-5.81,-15.58,-0.87,-0.27,-1.21,0.12,1012.66
5.242,-0.26,-0.81,-0.54,-5.81,-15.58,-0.87,-0.27,-1.21,0.12,1012.66
5.267,2.14,1.59,-0.65,-5.81,-15.58,-0.87,-0.27,-1.21,0.12,1012.66
5.27,2.14,1.59,-0.65,-5.81,-15.58,-0.87,-0.01,-0.68,0.99,1012.66
5.271,2.14,1.59,-0.65,17.22,7.95,-1.77,-0.01,-0.68,0.99,1012.66
5.308,2.14,1.59,-0.65,17.22,7.95,-1.77,-0.01,-0.68,0.99,1012.66
5.31,-0.15,0.62,-0.43,17.22,7.95,-1.77,-0.01,-0.68,0.99,1012.66
5.311,-0.15,0.62,-0.43,17.22,7.95,-1.77,-0.20,0.98,-1.29,1012.66
5.312,-0.15,0.62,-0.43,-4.90,-1.74,0.13,-0.20,0.98,-1.29,1012.66
5.345,0.37,1.01,-0.61,-4.90,-1.74,0.13,-0.20,0.98,-1.29,1012.66
5.347,0.37,1.01,-0.61,-4.90,-1.74,0.13,-0.26,-0.64,-0.47,1012.66
5.348,0.37,1.01,-0.61,0.50,1.95,-1.60,-0.26,-0.64,-0.47,1012.66
5.354,0.37,1.01,-0.61,0.50,1.95,-1.60,-0.26,-0.64,-0.47,1012.66
5.386,0.76,0.81,-0.31,0.50,1.95,-1.60,-0.26,-0.64,-0.47,1012.66
5.39,0.76,0.81,-0.31,0.50,1.95,-1.60,-0.49,0.00,-0.67,1012.66
5.392,0.76,0.81,-0.31,4.41,-0.23,1.20,-0.49,0.00,-0.67,1012.66
5.438,0.76,0.81,-0.31,4.41,-0.23,1.20,-0.49,0.00,-0.67,1012.66
5.44,-0.19,0.85,-0.52,4.41,-0.23,1.20,-0.49,0.00,-0.67,1012.66
5.441,-0.19,0.85,-0.52,4.41,-0.23,1.20,-0.27,0.70,-1.17,1012.66
5.442,-0.19,0.85,-0.52,-4.54,0.05,-1.01,-0.27,0.70,-1.17,1012.66
5.471,0.19,0.88,-0.39,-4.54,0.05,-1.01,-0.27,0.70,-1.17,1012.66
5.473,0.19,0.88,-0.39,-4.54,0.05,-1.01,-0.44,-0.08,-0.63,1012.66
5.474,0.19,0.88,-0.39,-0.54,0.14,0.10,-0.44,-0.08,-0.63,1012.66
5.475,0.19,0.88,-0.39,-0.54,0.14,0.10,-0.44,-0.08,-0.63,1012.66
5.508,0.05,0.84,-0.33,-0.54,0.14,0.10,-0.44,-0.08,-0.63,1012.66
5.514,0.05,0.84,-0.33,-0.54,0.14,0.10,-0.40,0.26,-0.61,1012.66
5.516,0.05,0.84,-0.33,-1.78,-0.30,0.52,-0.40,0.26,-0.61,1012.66
5.534,0.05,0.84,-0.33,-1.78,-0.30,0.52,-0.40,0.26,-0.61,1012.67
5.543,-0.12,0.88,-0.25,-1.78,-0.30,0.52,-0.40,0.26,-0.61,1012.67
5.544,-0.12,0.88,-0.25,-1.78,-0.30,0.52,-0.25,0.31,-0.38,1012.67
5.544,-0.12,0.88,-0.25,-3.27,0.02,1.15,-0.25,0.31,-0.38,1012.67
5.583,0.03,0.91,-0.25,-3.27,0.02,1.15,-0.25,0.31,-0.38,1012.67
5.586,0.03,0.91,-0.25,-1.80,0.23,1.12,-0.25,0.31,-0.38,1012.67
5.588,0.03,0.91,-0.25,-1.80,0.23,1.12,-0.07,0.13,0.06,1012.67
5.594,0.03,0.91,-0.25,-1.80,0.23,1.12,-0.07,0.13,0.06,1012.66
5.632,0.03,0.88,-0.27,-1.80,0.23,1.12,-0.07,0.13,0.06,1012.66
5.636,0.03,0.88,-0.27,-1.80,0.23,1.12,0.13,0.35,0.36,1012.66
5.638,0.03,0.88,-0.27,-1.96,0.03,0.89,0.13,0.35,0.36,1012.66
5.669,0.03,0.88,-0.27,-1.96,0.03,0.89,0.13,0.35,0.36,1012.67
5.673,0.12,0.94,-0.30,-1.96,0.03,0.89,0.13,0.35,0.36,1012.67
5.674,0.12,0.94,-0.30,-1.96,0.03,0.89,0.29,0.40,0.70,1012.67
5.676,0.12,0.94,-0.30,-1.36,0.75,0.70,0.29,0.40,0.70,1012.67
5.701,0.16,0.86,-0.42,-1.36,0.75,0.70,0.29,0.40,0.70,1012.67
5.703,0.16,0.86,-0.42,-1.36,0.75,0.70,0.39,0.40,0.83,1012.67
5.705,0.16,0.86,-0.42,-1.30,0.04,-0.40,0.39,0.40,0.83,1012.67
5.74,0.16,0.86,-0.42,-1.30,0.04,-0.40,0.39,0.40,0.83,1012.67
5.744,0.49,0.90,-0.41,-1.30,0.04,-0.40,0.39,0.40,0.83,1012.67
5.744,0.49,0.90,-0.41,-1.30,0.04,-0.40,0.37,0.16,0.87,1012.67
5.783,0.49,0.90,-0.41,1.58,0.61,-0.19,0.37,0.16,0.87,1012.67
5.786,0.49,0.90,-0.41,1.58,0.61,-0.19,0.37,0.16,0.87,1012.67
5.788,0.49,0.98,-0.60,1.58,0.61,-0.19,0.37,0.16,0.87,1012.67
5.79,0.49,0.98,-0.60,1.58,0.61,-0.19,0.19,0.10,0.63,1012.67
5.791,0.49,0.98,-0.60,1.35,1.46,-2.00,0.19,0.10,0.63,1012.67
5.828,0.56,1.18,-0.65,1.35,1.46,-2.00,0.19,0.10,0.63,1012.67
5.831,0.56,1.18,-0.65,1.35,1.46,-2.00,-0.11,0.05,0.37,1012.67
5.833,0.56,1.18,-0.65,1.87,3.45,-2.51,-0.11,0.05,0.37,1012.67
5.841,0.56,1.18,-0.65,1.87,3.45,-2.51,-0.11,0.05,0.37,1012.67
5.879,0.84,1.43,-0.41,1.87,3.45,-2.51,-0.11,0.05,0.37,1012.67
5.883,0.84,1.43,-0.41,1.87,3.45,-2.51,-0.51,0.15,0.08,1012.67
5.885,0.84,1.43,-0.41,4.52,5.73,-0.30,-0.51,0.15,0.08,1012.67
5.893,0.84,1.43,-0.41,4.52,5.73,-0.30,-0.51,0.15,0.08,1012.66
5.898,0.40,1.65,-0.32,4.52,5.73,-0.30,-0.51,0.15,0.08,1012.66
5.9,0.40,1.65,-0.32,4.52,5.73,-0.30,-0.74,0.54,-0.57,1012.66
5.901,0.40,1.65,-0.32,0.33,7.54,0.28,-0.74,0.54,-0.57,1012.66
5.942,-0.24,1.22,-0.24,0.33,7.54,0.28,-0.74,0.54,-0.57,1012.66
5.947,-0.24,1.22,-0.24,0.33,7.54,0.28,-0.58,1.84,-0.81,1012.66
5.949,-0.24,1.22,-0.24,-5.77,3.09,0.60,-0.58,1.84,-0.81,1012.66
5.973,-0.24,1.22,-0.24,-5.77,3.09,0.60,-0.58,1.84,-0.81,1012.65
5.976,-0.53,0.90,-0.49,-5.77,3.09,0.60,-0.58,1.84,-0.81,1012.65
5.978,-0.53,0.90,-0.49,-5.77,3.09,0.60,0.08,1.67,0.56,1012.65
5.979,-0.53,0.90,-0.49,-8.88,0.03,-2.08,0.08,1.67,0.56,1012.65
6.018,-0.53,0.90,-0.49,-8.88,0.03,-2.08,0.08,1.67,0.56,1012.65
6.021,1.63,1.36,-0.35,-8.88,0.03,-2.08,0.08,1.67,0.56,1012.65
6.022,1.63,1.36,-0.35,-8.88,0.03,-2.08,1.44,0.97,3.32,1012.65
6.023,1.63,1.36,-0.35,10.88,5.22,-0.36,1.44,0.97,3.32,1012.65
6.055,0.63,1.19,-0.51,10.88,5.22,-0.36,1.44,0.97,3.32,1012.65
6.057,0.63,1.19,-0.51,10.88,5.22,-0.36,2.25,4.08,1.73,1012.65
6.057,0.63,1.19,-0.51,0.09,4.11,-2.12,2.25,4.08,1.73,1012.65
6.073,0.63,1.19,-0.51,0.09,4.11,-2.12,2.25,4.08,1.73,1012.64
6.097,0.63,1.19,-0.51,-5.63,1.63,-0.06,2.25,4.08,1.73,1012.64
6.1,0.13,0.88,-0.24,-5.63,1.63,-0.06,2.25,4.08,1.73,1012.64
6.101,0.13,0.88,-0.24,-5.63,1.63,-0.06,1.93,4.57,1.57,1012.64
6.138,0.13,0.88,-0.24,-5.63,1.63,-0.06,1.93,4.57,1.57,1012.64
6.14,0.43,0.48,0.04,-5.63,1.63,-0.06,1.93,4.57,1.57,1012.64
6.141,0.43,0.48,0.04,-5.63,1.63,-0.06,1.75,3.02,1.69,1012.64
6.141,0.43,0.48,0.04,-3.36,-1.62,2.22,1.75,3.02,1.69,1012.64
6.174,0.03,0.21,-0.05,-3.36,-1.62,2.22,1.75,3.02,1.69,1012.64
6.175,0.03,0.21,-0.05,-3.36,-1.62,2.22,1.87,1.63,0.93,1012.64
6.176,0.03,0.21,-0.05,-7.44,-3.78,1.26,1.87,1.63,0.93,1012.64
6.192,0.03,0.21,-0.05,-7.44,-3.78,1.26,1.87,1.63,0.93,1012.64
6.224,0.00,0.07,-0.04,-7.44,-3.78,1.26,1.87,1.63,0.93,1012.64
6.227,0.00,0.07,-0.04,-7.44,-3.78,1.26,1.89,-0.04,0.05,1012.64
6.23,0.00,0.07,-0.04,-7.63,-4.86,1.80,1.89,-0.04,0.05,1012.64
6.255,0.21,0.07,-0.02,-7.63,-4.86,1.80,1.89,-0.04,0.05,1012.64
6.256,0.21,0.07,-0.02,-7.63,-4.86,1.80,1.63,-0.48,-1.26,1012.64
6.256,0.21,0.07,-0.02,-7.63,-4.86,1.80,1.63,-0.48,-1.26,1012.65
6.257,0.21,0.07,-0.02,-5.19,-5.01,2.39,1.63,-0.48,-1.26,1012.65
6.294,0.35,0.04,0.06,-5.19,-5.01,2.39,1.63,-0.48,-1.26,1012.65
6.297,0.35,0.04,0.06,-5.19,-5.01,2.39,1.09,0.57,-2.72,1012.65
6.302,0.35,0.04,0.06,-3.12,-5.83,3.31,1.09,0.57,-2.72,1012.65
6.315,0.35,0.04,0.06,-3.12,-5.83,3.31,1.09,0.57,-2.72,1012.64
6.336,0.17,0.19,-0.01,-3.12,-5.83,3.31,1.09,0.57,-2.72,1012.64
6.341,0.17,0.19,-0.01,-3.12,-5.83,3.31,0.67,1.16,-3.74,1012.64
6.346,0.17,0.19,-0.01,-3.99,-5.11,2.43,0.67,1.16,-3.74,1012.64
6.372,0.12,0.62,-0.29,-3.99,-5.11,2.43,0.67,1.16,-3.74,1012.64
6.373,0.12,0.62,-0.29,-3.99,-5.11,2.43,0.11,-1.32,-3.63,1012.64
6.374,0.12,0.62,-0.29,-3.22,-1.67,-0.03,0.11,-1.32,-3.63,1012.64
6.374,0.12,0.62,-0.29,-3.22,-1.67,-0.03,0.11,-1.32,-3.63,1012.63
6.424,1.22,1.03,-0.40,-3.22,-1.67,-0.03,0.11,-1.32,-3.63,1012.63
6.426,1.22,1.03,-0.40,-3.22,-1.67,-0.03,-0.85,-3.66,-2.27,1012.63
6.427,1.22,1.03,-0.40,8.55,1.95,-0.83,-0.85,-3.66,-2.27,1012.63
6.449,1.22,1.03,-0.40,8.55,1.95,-0.83,-0.85,-3.66,-2.27,1012.63
6.451,1.46,1.05,-0.31,8.55,1.95,-0.83,-0.85,-3.66,-2.27,1012.63
6.452,1.46,1.05,-0.31,8.55,1.95,-0.83,-1.37,-0.87,-1.74,1012.63
6.453,1.46,1.05,-0.31,11.41,1.67,-0.26,-1.37,-0.87,-1.74,1012.63
6.491,0.19,1.00,-0.38,11.41,1.67,-0.26,-1.37,-0.87,-1.74,1012.63
6.493,0.19,1.00,-0.38,11.41,1.67,-0.26,-1.04,1.65,-2.03,1012.63
6.494,0.19,1.00,-0.38,-0.50,0.84,-1.48,-1.04,1.65,-2.03,1012.63
6.494,0.19,1.00,-0.38,-0.50,0.84,-1.48,-1.04,1.65,-2.03,1012.63
6.533,0.19,1.00,-0.38,-1.18,2.00,-1.93,-1.04,1.65,-2.03,1012.63
6.537,0.08,1.13,-0.41,-1.18,2.00,-1.93,-1.04,1.65,-2.03,1012.63
6.539,0.08,1.13,-0.41,-1.18,2.00,-1.93,-0.67,-0.06,-1.14,1012.63
6.584,0.08,1.13,-0.41,-1.18,2.00,-1.93,-0.67,-0.06,-1.14,1012.63
6.587,0.88,1.61,0.08,-1.18,2.00,-1.93,-0.67,-0.06,-1.14,1012.63
6.59,0.88,1.61,0.08,-1.18,2.00,-1.93,-0.60,-0.99,0.17,1012.63
6.592,0.88,1.61,0.08,6.56,6.54,2.63,-0.60,-0.99,0.17,1012.63
6.61,-0.23,1.07,0.02,6.56,6.54,2.63,-0.60,-0.99,0.17,1012.63
6.611,-0.23,1.07,0.02,6.56,6.54,2.63,-0.66,1.19,-0.54,1012.63
6.612,-0.23,1.07,0.02,-4.07,1.14,1.66,-0.66,1.19,-0.54,1012.63
6.612,-0.23,1.07,0.02,-4.07,1.14,1.66,-0.66,1.19,-0.54,1012.62
6.648,-0.37,0.72,-0.32,-4.07,1.14,1.66,-0.66,1.19,-0.54,1012.62
6.65,-0.37,0.72,-0.32,-4.07,1.14,1.66,-0.31,0.66,-0.45,1012.62
6.651,-0.37,0.72,-0.32,-5.24,-2.27,-1.79,-0.31,0.66,-0.45,1012.62
6.671,-0.37,0.72,-0.32,-5.24,-2.27,-1.79,-0.31,0.66,-0.45,1012.61
6.69,0.38,0.90,-0.07,-5.24,-2.27,-1.79,-0.31,0.66,-0.45,1012.61
6.694,0.38,0.90,-0.07,-5.24,-2.27,-1.79,-0.37,-0.77,0.18,1012.61
6.697,0.38,0.90,-0.07,2.06,-0.58,0.59,-0.37,-0.77,0.18,1012.61
6.73,0.38,0.90,-0.07,-0.47,0.83,0.33,-0.37,-0.77,0.18,1012.61
6.733,0.13,1.04,-0.08,-0.47,0.83,0.33,-0.37,-0.77,0.18,1012.61
6.735,0.13,1.04,-0.08,-0.47,0.83,0.33,-0.46,-0.11,0.10,1012.61
6.736,0.13,1.04,-0.08,-0.47,0.83,0.33,-0.46,-0.11,0.10,1012.61
6.768,-0.20,1.13,-0.26,-0.47,0.83,0.33,-0.46,-0.11,0.10,1012.61
6.771,-0.20,1.13,-0.26,-3.70,1.62,-1.59,-0.46,-0.11,0.10,1012.61
6.773,-0.20,1.13,-0.26,-3.70,1.62,-1.59,-0.44,0.20,0.17,1012.61
6.791,-0.20,1.13,-0.26,-3.70,1.62,-1.59,-0.44,0.20,0.17,1012.62
6.806,0.06,0.93,-0.06,-3.70,1.62,-1.59,-0.44,0.20,0.17,1012.62
6.807,0.06,0.93,-0.06,-3.70,1.62,-1.59,-0.55,-0.22,0.49,1012.62
6.807,0.06,0.93,-0.06,-1.26,-0.32,0.23,-0.55,-0.22,0.49,1012.62
6.845,0.20,0.95,-0.06,-1.26,-0.32,0.23,-0.55,-0.22,0.49,1012.62
6.847,0.20,0.95,-0.06,-1.26,-0.32,0.23,-0.51,-0.32,0.66,1012.62
6.847,0.20,0.95,-0.06,-0.11,-0.08,-0.02,-0.51,-0.32,0.66,1012.62
6.851,0.20,0.95,-0.06,-0.11,-0.08,-0.02,-0.51,-0.32,0.66,1012.64
6.886,0.18,0.93,-0.04,-0.11,-0.08,-0.02,-0.51,-0.32,0.66,1012.64
6.889,0.18,0.93,-0.04,-0.11,-0.08,-0.02,-0.47,-0.33,0.62,1012.64
6.891,0.18,0.93,-0.04,-0.52,-0.18,0.05,-0.47,-0.33,0.62,1012.64
6.912,0.18,0.93,-0.04,-0.52,-0.18,0.05,-0.47,-0.33,0.62,1012.64
6.942,0.32,1.00,0.05,-0.52,-0.18,0.05,-0.47,-0.33,0.62,1012.64
6.944,0.32,1.00,0.05,-0.52,-0.18,0.05,-0.37,-0.04,0.63,1012.64
6.945,0.32,1.00,0.05,0.56,0.55,0.81,-0.37,-0.04,0.63,1012.64
6.966,0.32,0.90,0.07,0.56,0.55,0.81,-0.37,-0.04,0.63,1012.64
6.969,0.32,0.90,0.07,0.56,0.55,0.81,-0.25,0.12,0.50,1012.64
6.97,0.32,0.90,0.07,0.38,-0.36,0.84,-0.25,0.12,0.50,1012.64
6.97,0.32,0.90,0.07,0.38,-0.36,0.84,-0.25,0.12,0.50,1012.62
7.005,0.39,0.98,-0.00,0.38,-0.36,0.84,-0.25,0.12,0.50,1012.62
7.008,0.39,0.98,-0.00,0.38,-0.36,0.84,-0.20,-0.15,0.42,1012.62
7.01,0.39,0.98,-0.00,0.88,0.44,0.14,-0.20,-0.15,0.42,1012.62
7.052,0.39,0.98,-0.00,0.88,0.44,0.14,-0.20,-0.15,0.42,1012.60
7.056,0.40,0.94,0.08,0.88,0.44,0.14,-0.20,-0.15,0.42,1012.60
7.058,0.40,0.94,0.08,0.88,0.44,0.14,-0.14,0.03,0.24,1012.60
7.059,0.40,0.94,0.08,0.89,0.06,0.86,-0.14,0.03,0.24,1012.60
7.096,0.30,0.97,0.08,0.89,0.06,0.86,-0.14,0.03,0.24,1012.60
7.099,0.30,0.97,0.08,0.89,0.06,0.86,0.03,0.46,0.08,1012.60
7.1,0.30,0.97,0.08,-0.07,0.33,0.81,0.03,0.46,0.08,1012.60
7.101,0.30,0.97,0.08,-0.07,0.33,0.81,0.03,0.46,0.08,1012.61
7.122,0.21,0.94,-0.03,-0.07,0.33,0.81,0.03,0.46,0.08,1012.61
7.123,0.21,0.94,-0.03,-0.07,0.33,0.81,0.12,0.38,0.07,1012.61
7.124,0.21,0.94,-0.03,-1.02,0.10,-0.30,0.12,0.38,0.07,1012.61
7.151,0.21,0.94,-0.03,-1.02,0.10,-0.30,0.12,0.38,0.07,1012.62
7.172,0.29,0.96,-0.04,-1.02,0.10,-0.30,0.12,0.38,0.07,1012.62
7.174,0.29,0.96,-0.04,-1.02,0.10,-0.30,0.08,0.13,0.11,1012.62
7.175,0.29,0.96,-0.04,-0.25,0.32,-0.35,0.08,0.13,0.11,1012.62
7.201,0.30,0.94,0.03,-0.25,0.32,-0.35,0.08,0.13,0.11,1012.62
7.204,0.30,0.94,0.03,-0.25,0.32,-0.35,0.05,0.25,0.07,1012.62
7.205,0.30,0.94,0.03,-0.21,0.10,0.33,0.05,0.25,0.07,1012.62
7.21,0.30,0.94,0.03,-0.21,0.10,0.33,0.05,0.25,0.07,1012.63
7.249,0.20,0.95,0.00,-0.21,0.10,0.33,0.05,0.25,0.07,1012.63
7.252,0.20,0.95,0.00,-0.21,0.10,0.33,0.07,0.21,0.11,1012.63
7.254,0.20,0.95,0.00,-1.19,0.19,0.03,0.07,0.21,0.11,1012.63
7.29,0.20,0.95,0.00,-1.19,0.19,0.03,0.07,0.21,0.11,1012.62
7.293,0.31,0.94,-0.00,-1.19,0.19,0.03,0.07,0.21,0.11,1012.62
7.295,0.31,0.94,-0.00,-1.19,0.19,0.03,0.07,-0.10,0.22,1012.62
7.297,0.31,0.94,-0.00,-0.18,0.08,0.04,0.07,-0.10,0.22,1012.62
7.324,0.38,0.94,0.01,-0.18,0.08,0.04,0.07,-0.10,0.22,1012.62
7.326,0.38,0.94,0.01,-0.18,0.08,0.04,0.08,-0.01,0.18,1012.62
7.328,0.38,0.94,0.01,0.43,0.10,0.15,0.08,-0.01,0.18,1012.62
7.355,0.38,0.94,0.01,0.43,0.10,0.15,0.08,-0.01,0.18,1012.62
7.359,0.29,0.94,-0.02,0.43,0.10,0.15,0.08,-0.01,0.18,1012.62
7.363,0.29,0.94,-0.02,0.43,0.10,0.15,0.07,0.08,0.11,1012.62
7.364,0.29,0.94,-0.02,-0.43,0.18,-0.13,0.07,0.08,0.11,1012.62
7.39,0.29,0.94,-0.02,-0.43,0.18,-0.13,0.07,0.08,0.11,1012.62
7.4,0.29,0.94,-0.02,0.02,0.26,-0.35,0.07,0.08,0.11,1012.62
7.405,0.34,0.95,-0.05,0.02,0.26,-0.35,0.07,0.08,0.11,1012.62
7.407,0.34,0.95,-0.05,0.02,0.26,-0.35,0.04,-0.02,0.10,1012.62
7.44,0.32,0.95,-0.04,0.02,0.26,-0.35,0.04,-0.02,0.10,1012.62
7.441,0.32,0.95,-0.04,0.02,0.26,-0.35,0.00,0.03,0.05,1012.62
7.442,0.32,0.95,-0.04,-0.19,0.26,-0.29,0.00,0.03,0.05,1012.62
7.46,0.32,0.95,-0.04,-0.19,0.26,-0.29,0.00,0.03,0.05,1012.64
7.477,0.32,0.90,-0.00,-0.19,0.26,-0.29,0.00,0.03,0.05,1012.64
7.481,0.32,0.90,-0.00,-0.19,0.26,-0.29,-0.04,-0.06,0.03,1012.64
7.482,0.32,0.90,-0.00,-0.20,-0.18,0.06,-0.04,-0.06,0.03,1012.64
7.511,0.32,0.90,-0.00,-0.20,-0.18,0.06,-0.04,-0.06,0.03,1012.63
7.537,0.33,0.95,0.01,-0.20,-0.18,0.06,-0.04,-0.06,0.03,1012.63
7.539,0.33,0.95,0.01,-0.20,-0.18,0.06,-0.04,-0.12,0.02,1012.63
7.54,0.33,0.95,0.01,-0.17,0.27,0.21,-0.04,-0.12,0.02,1012.63
7.579,0.31,0.95,0.01,-0.17,0.27,0.21,-0.04,-0.12,0.02,1012.63
7.581,0.31,0.95,0.01,-0.17,0.27,0.21,-0.02,-0.04,0.02,1012.63
7.582,0.31,0.95,0.01,-0.37,0.26,0.16,-0.02,-0.04,0.02,1012.63
7.582,0.31,0.95,0.01,-0.37,0.26,0.16,-0.02,-0.04,0.02,1012.63
7.598,0.32,0.93,-0.02,-0.37,0.26,0.16,-0.02,-0.04,0.02,1012.63
7.599,0.32,0.93,-0.02,-0.37,0.26,0.16,0.00,-0.00,0.02,1012.63
7.599,0.32,0.93,-0.02,-0.25,0.09,-0.09,0.00,-0.00,0.02,1012.63
7.635,0.32,0.93,-0.02,-0.25,0.09,-0.09,0.00,-0.00,0.02,1012.63
7.636,0.27,0.95,-0.05,-0.25,0.09,-0.09,0.00,-0.00,0.02,1012.63
7.637,0.27,0.95,-0.05,-0.25,0.09,-0.09,-0.02,-0.01,0.03,1012.63
7.638,0.27,0.95,-0.05,-0.71,0.23,-0.39,-0.02,-0.01,0.03,1012.63
7.675,0.33,0.94,0.01,-0.71,0.23,-0.39,-0.02,-0.01,0.03,1012.63
7.676,0.33,0.94,0.01,-0.71,0.23,-0.39,-0.06,-0.12,0.06,1012.63
7.677,0.33,0.94,0.01,-0.17,0.22,0.17,-0.06,-0.12,0.06,1012.63
7.689,0.33,0.94,0.01,-0.17,0.22,0.17,-0.06,-0.12,0.06,1012.64
