time,gFx,gFy,gFz,ax,ay,az,wx,wy,wz,P
0.026,0.36,0.93,-0.06,-0.47,0.11,-0.01,-0.04,-0.06,0.01,1012.85
0.027,0.36,0.93,-0.06,-0.47,0.11,-0.01,-0.06,-0.18,0.07,1012.85
0.028,0.36,0.93,-0.06,0.25,-0.04,-0.06,-0.06,-0.18,0.07,1012.85
0.031,0.36,0.93,-0.06,0.25,-0.04,-0.06,-0.06,-0.18,0.07,1012.85
0.061,0.37,0.92,-0.05,0.25,-0.04,-0.06,-0.06,-0.18,0.07,1012.85
0.062,0.37,0.92,-0.05,0.25,-0.04,-0.06,-0.05,-0.06,0.01,1012.85
0.063,0.37,0.92,-0.05,0.30,-0.11,-0.04,-0.05,-0.06,0.01,1012.85
0.088,0.37,0.92,-0.05,0.30,-0.11,-0.04,-0.05,-0.06,0.01,1012.84
0.101,0.31,0.95,-0.07,0.30,-0.11,-0.04,-0.05,-0.06,0.01,1012.84
0.103,0.31,0.95,-0.07,0.30,-0.11,-0.04,-0.04,0.04,-0.05,1012.84
0.104,0.31,0.95,-0.07,-0.22,0.19,-0.23,-0.04,0.04,-0.05,1012.84
0.17,0.31,0.95,-0.07,-0.12,-0.11,-0.13,-0.04,0.04,-0.05,1012.84
0.173,0.32,0.92,-0.06,-0.12,-0.11,-0.13,-0.04,0.04,-0.05,1012.84
0.176,0.32,0.92,-0.06,-0.12,-0.11,-0.13,-0.07,-0.06,-0.03,1012.84
0.177,0.32,0.92,-0.06,-0.12,-0.11,-0.13,-0.07,-0.06,-0.03,1012.82
0.18,0.33,0.94,-0.06,-0.12,-0.11,-0.13,-0.07,-0.06,-0.03,1012.82
0.182,0.33,0.94,-0.06,-0.12,-0.11,-0.13,-0.08,-0.08,-0.04,1012.82
0.182,0.33,0.94,-0.06,-0.06,0.01,-0.13,-0.08,-0.08,-0.04,1012.82
0.208,0.33,0.94,-0.06,-0.06,0.01,-0.13,-0.08,-0.08,-0.04,1012.83
0.22,0.35,0.92,-0.05,-0.06,0.01,-0.13,-0.08,-0.08,-0.04,1012.83
0.22,0.35,0.92,-0.05,-0.06,0.01,-0.13,-0.08,-0.12,-0.06,1012.83
0.221,0.35,0.92,-0.05,0.20,-0.17,-0.06,-0.08,-0.12,-0.06,1012.83
0.26,0.39,0.93,-0.05,0.20,-0.17,-0.06,-0.08,-0.12,-0.06,1012.83
0.261,0.39,0.93,-0.05,0.20,-0.17,-0.06,-0.04,-0.21,-0.15,1012.83
0.262,0.39,0.93,-0.05,0.57,-0.06,-0.04,-0.04,-0.21,-0.15,1012.83
0.269,0.39,0.93,-0.05,0.57,-0.06,-0.04,-0.04,-0.21,-0.15,1012.83
0.299,0.50,0.93,0.07,0.57,-0.06,-0.04,-0.04,-0.21,-0.15,1012.83
0.301,0.50,0.93,0.07,0.57,-0.06,-0.04,0.05,-0.18,-0.28,1012.83
0.301,0.50,0.93,0.07,1.81,-0.14,1.17,0.05,-0.18,-0.28,1012.83
0.333,0.50,0.93,0.07,1.81,-0.14,1.17,0.05,-0.18,-0.28,1012.83
0.343,0.43,0.87,0.12,1.81,-0.14,1.17,0.05,-0.18,-0.28,1012.83
0.346,0.43,0.87,0.12,1.81,-0.14,1.17,0.23,0.14,-0.51,1012.83
0.347,0.43,0.87,0.12,1.24,-0.69,1.71,0.23,0.14,-0.51,1012.83
0.385,0.13,0.92,0.01,1.24,-0.69,1.71,0.23,0.14,-0.51,1012.83
0.389,0.13,0.92,0.01,1.24,-0.69,1.71,0.37,0.12,-0.62,1012.83
0.391,0.13,0.92,0.01,-1.43,-0.31,0.73,0.37,0.12,-0.62,1012.83
0.393,0.13,0.92,0.01,-1.43,-0.31,0.73,0.37,0.12,-0.62,1012.84
0.419,0.04,0.94,-0.08,-1.43,-0.31,0.73,0.37,0.12,-0.62,1012.84
0.426,0.04,0.94,-0.08,-1.43,-0.31,0.73,0.40,-0.33,-0.40,1012.84
0.428,0.04,0.94,-0.08,-2.15,-0.10,0.00,0.40,-0.33,-0.40,1012.84
0.476,0.04,0.94,-0.08,-2.15,-0.10,0.00,0.40,-0.33,-0.40,1012.86
0.48,0.17,0.91,-0.09,-2.15,-0.10,0.00,0.40,-0.33,-0.40,1012.86
0.481,0.17,0.91,-0.09,-2.15,-0.10,0.00,0.42,-0.42,-0.14,1012.86
0.482,0.17,0.91,-0.09,-0.82,-0.43,0.08,0.42,-0.42,-0.14,1012.86
0.494,0.06,0.97,-0.14,-0.82,-0.43,0.08,0.42,-0.42,-0.14,1012.86
0.496,0.06,0.97,-0.14,-0.82,-0.43,0.08,0.44,-0.42,-0.02,1012.86
0.496,0.06,0.97,-0.14,-1.78,0.18,-0.16,0.44,-0.42,-0.02,1012.86
0.508,0.06,0.97,-0.14,-1.78,0.18,-0.16,0.44,-0.42,-0.02,1012.87
0.537,0.17,1.05,-0.28,-1.78,0.18,-0.16,0.44,-0.42,-0.02,1012.87
0.539,0.17,1.05,-0.28,-1.78,0.18,-0.16,0.44,-0.80,0.15,1012.87
0.541,0.17,1.05,-0.28,-0.72,0.95,-1.35,0.44,-0.80,0.15,1012.87
0.569,0.17,1.05,-0.28,-0.72,0.95,-1.35,0.44,-0.80,0.15,1012.86
0.577,0.17,1.05,-0.28,1.34,0.12,-0.67,0.44,-0.80,0.15,1012.86
0.579,0.38,0.96,-0.24,1.34,0.12,-0.67,0.44,-0.80,0.15,1012.86
0.58,0.38,0.96,-0.24,1.34,0.12,-0.67,0.35,-0.63,0.12,1012.86
0.616,0.27,1.05,-0.13,1.34,0.12,-0.67,0.35,-0.63,0.12,1012.86
0.618,0.27,1.05,-0.13,1.34,0.12,-0.67,0.36,-0.19,-0.04,1012.86
0.619,0.27,1.05,-0.13,0.26,1.04,0.56,0.36,-0.19,-0.04,1012.86
0.629,0.27,1.05,-0.13,0.26,1.04,0.56,0.36,-0.19,-0.04,1012.86
0.657,0.37,0.98,-0.31,0.26,1.04,0.56,0.36,-0.19,-0.04,1012.86
0.658,0.37,0.98,-0.31,1.26,0.36,-1.10,0.36,-0.19,-0.04,1012.86
0.659,0.37,0.98,-0.31,1.26,0.36,-1.10,0.39,-0.06,-0.08,1012.86
0.688,0.37,0.98,-0.31,1.26,0.36,-1.10,0.39,-0.06,-0.08,1012.86
0.696,0.37,0.98,-0.31,-0.24,-0.15,-0.98,0.39,-0.06,-0.08,1012.86
0.698,0.21,0.93,-0.31,-0.24,-0.15,-0.98,0.39,-0.06,-0.08,1012.86
0.698,0.21,0.93,-0.31,-0.24,-0.15,-0.98,0.26,0.27,-0.24,1012.86
0.766,0.06,0.93,-0.21,-0.24,-0.15,-0.98,0.26,0.27,-0.24,1012.86
0.767,0.06,0.93,-0.21,-0.24,-0.15,-0.98,0.16,0.23,-0.22,1012.86
0.768,0.06,0.93,-0.21,-1.67,-0.18,-0.01,0.16,0.23,-0.22,1012.86
0.769,0.06,0.93,-0.21,-1.67,-0.18,-0.01,0.16,0.23,-0.22,1012.87
0.782,0.01,0.90,-0.22,-1.67,-0.18,-0.01,0.16,0.23,-0.22,1012.87
0.784,0.01,0.90,-0.22,-1.67,-0.18,-0.01,0.17,0.04,-0.02,1012.87
0.785,0.01,0.90,-0.22,-2.08,-0.39,-0.02,0.17,0.04,-0.02,1012.87
0.809,0.01,0.90,-0.22,-2.08,-0.39,-0.02,0.17,0.04,-0.02,1012.87
0.812,-0.11,0.92,-0.21,-2.08,-0.39,-0.02,0.17,0.04,-0.02,1012.87
0.812,-0.11,0.92,-0.21,-2.08,-0.39,-0.02,0.18,-0.23,0.25,1012.87
0.813,-0.11,0.92,-0.21,-3.26,-0.19,0.15,0.18,-0.23,0.25,1012.87
0.853,0.16,0.98,-0.15,-3.26,-0.19,0.15,0.18,-0.23,0.25,1012.87
0.854,0.16,0.98,-0.15,-3.26,-0.19,0.15,0.30,-0.53,0.62,1012.87
0.854,0.16,0.98,-0.15,-0.80,0.49,0.91,0.30,-0.53,0.62,1012.87
0.868,0.16,0.98,-0.15,-0.80,0.49,0.91,0.30,-0.53,0.62,1012.87
0.891,0.36,1.10,-0.30,-0.80,0.49,0.91,0.30,-0.53,0.62,1012.87
0.892,0.36,1.10,-0.30,-0.80,0.49,0.91,0.46,-0.32,0.71,1012.87
0.892,0.36,1.10,-0.30,0.88,1.75,-0.41,0.46,-0.32,0.71,1012.87
0.939,0.36,1.10,-0.30,0.88,1.75,-0.41,0.46,-0.32,0.71,1012.87
0.941,0.57,1.30,-0.59,0.88,1.75,-0.41,0.46,-0.32,0.71,1012.87
0.943,0.57,1.30,-0.59,0.88,1.75,-0.41,0.28,-0.14,0.52,1012.87
0.945,0.57,1.30,-0.59,2.71,3.69,-3.04,0.28,-0.14,0.52,1012.87
0.97,0.60,1.58,-0.34,2.71,3.69,-3.04,0.28,-0.14,0.52,1012.87
0.972,0.60,1.58,-0.34,2.71,3.69,-3.04,-0.12,0.39,0.00,1012.87
0.972,0.60,1.58,-0.34,2.95,6.33,-0.64,-0.12,0.39,0.00,1012.87
0.988,0.60,1.58,-0.34,2.95,6.33,-0.64,-0.12,0.39,0.00,1012.87
1.01,-0.01,1.74,-0.07,2.95,6.33,-0.64,-0.12,0.39,0.00,1012.87
1.014,-0.01,1.74,-0.07,2.95,6.33,-0.64,-0.43,0.78,-0.37,1012.87
1.015,-0.01,1.74,-0.07,-2.94,7.71,1.68,-0.43,0.78,-0.37,1012.87
1.065,-0.01,1.74,-0.07,-2.94,7.71,1.68,-0.43,0.78,-0.37,1012.86
1.07,-1.02,1.33,-0.10,-2.94,7.71,1.68,-0.43,0.78,-0.37,1012.86
1.072,-1.02,1.33,-0.10,-2.94,7.71,1.68,-0.31,1.36,-0.21,1012.86
1.074,-1.02,1.33,-0.10,-12.62,3.55,1.11,-0.31,1.36,-0.21,1012.86
1.117,-0.07,1.56,-0.65,-12.62,3.55,1.11,-0.31,1.36,-0.21,1012.86
1.12,-0.07,1.56,-0.65,-12.62,3.55,1.11,1.09,0.18,2.32,1012.86
1.122,-0.07,1.56,-0.65,-4.09,6.06,-3.80,1.09,0.18,2.32,1012.86
1.126,-0.07,1.56,-0.65,-4.09,6.06,-3.80,1.09,0.18,2.32,1012.86
1.13,1.73,1.81,-0.39,-4.09,6.06,-3.80,1.09,0.18,2.32,1012.86
1.132,1.73,1.81,-0.39,-4.09,6.06,-3.80,2.33,0.87,4.04,1012.86
1.132,1.73,1.81,-0.39,11.80,9.28,-0.57,2.33,0.87,4.04,1012.86
1.18,0.04,1.78,-0.62,11.80,9.28,-0.57,2.33,0.87,4.04,1012.86
1.183,0.04,1.78,-0.62,11.80,9.28,-0.57,2.44,3.23,2.62,1012.86
1.185,0.04,1.78,-0.62,-5.86,9.73,-2.78,2.44,3.23,2.62,1012.86
1.187,0.04,1.78,-0.62,-5.86,9.73,-2.78,2.44,3.23,2.62,1012.86
1.208,0.48,0.95,-0.25,-5.86,9.73,-2.78,2.44,3.23,2.62,1012.86
1.21,0.48,0.95,-0.25,-5.86,9.73,-2.78,1.34,0.95,3.34,1012.86
1.211,0.48,0.95,-0.25,-2.56,2.66,0.98,1.34,0.95,3.34,1012.86
1.228,0.48,0.95,-0.25,-2.56,2.66,0.98,1.34,0.95,3.34,1012.86
1.253,0.24,0.34,0.10,-2.56,2.66,0.98,1.34,0.95,3.34,1012.86
1.255,0.24,0.34,0.10,-2.56,2.66,0.98,0.73,-1.05,1.98,1012.86
1.256,0.24,0.34,0.10,-5.20,-2.60,4.78,0.73,-1.05,1.98,1012.86
1.293,-0.18,0.03,0.09,-5.20,-2.60,4.78,0.73,-1.05,1.98,1012.86
1.294,-0.18,0.03,0.09,-5.20,-2.60,4.78,0.33,-0.84,0.15,1012.86
1.295,-0.18,0.03,0.09,-5.20,-2.60,4.78,0.33,-0.84,0.15,1012.84
1.295,-0.18,0.03,0.09,-9.09,-5.37,4.95,0.33,-0.84,0.15,1012.84
1.351,-0.37,-0.08,-0.00,-9.09,-5.37,4.95,0.33,-0.84,0.15,1012.84
1.355,-0.37,-0.08,-0.00,-9.09,-5.37,4.95,-0.30,-1.05,-1.63,1012.84
1.356,-0.37,-0.08,-0.00,-10.22,-6.89,4.17,-0.30,-1.05,-1.63,1012.84
1.359,-0.37,-0.08,-0.00,-10.22,-6.89,4.17,-0.30,-1.05,-1.63,1012.82
1.378,-0.22,-0.30,-0.08,-10.22,-6.89,4.17,-0.30,-1.05,-1.63,1012.82
1.38,-0.22,-0.30,-0.08,-10.22,-6.89,4.17,-0.95,-2.14,-3.14,1012.82
1.382,-0.22,-0.30,-0.08,-7.44,-9.75,3.62,-0.95,-2.14,-3.14,1012.82
1.406,0.53,-0.37,-0.64,-7.44,-9.75,3.62,-0.95,-2.14,-3.14,1012.82
1.408,0.53,-0.37,-0.64,-7.44,-9.75,3.62,-1.47,-3.19,-3.52,1012.82
1.408,0.53,-0.37,-0.64,1.50,-11.14,-1.75,-1.47,-3.19,-3.52,1012.82
1.409,0.53,-0.37,-0.64,1.50,-11.14,-1.75,-1.47,-3.19,-3.52,1012.82
1.462,1.94,-0.64,-0.85,1.50,-11.14,-1.75,-1.47,-3.19,-3.52,1012.82
1.466,1.94,-0.64,-0.85,1.50,-11.14,-1.75,-1.46,-1.90,-1.95,1012.82
1.469,1.94,-0.64,-0.85,16.00,-14.05,-3.93,-1.46,-1.90,-1.95,1012.82
1.472,1.94,-0.64,-0.85,16.00,-14.05,-3.93,-1.46,-1.90,-1.95,1012.81
1.506,1.55,-0.86,-0.90,16.00,-14.05,-3.93,-1.46,-1.90,-1.95,1012.81
1.511,1.55,-0.86,-0.90,16.00,-14.05,-3.93,-0.32,0.71,-0.84,1012.81
1.513,1.55,-0.86,-0.90,12.09,-16.10,-4.52,-0.32,0.71,-0.84,1012.81
1.526,1.40,3.40,-0.85,12.09,-16.10,-4.52,-0.32,0.71,-0.84,1012.81
1.528,1.40,3.40,-0.85,12.09,-16.10,-4.52,0.73,1.11,0.57,1012.81
1.53,1.40,3.40,-0.85,10.09,25.44,-3.82,0.73,1.11,0.57,1012.81
1.532,1.40,3.40,-0.85,10.09,25.44,-3.82,0.73,1.11,0.57,1012.81
1.576,-1.06,-0.34,-0.49,10.09,25.44,-3.82,0.73,1.11,0.57,1012.81
1.578,-1.06,-0.34,-0.49,10.09,25.44,-3.82,-0.62,-0.28,-0.55,1012.81
1.579,-1.06,-0.34,-0.49,-13.60,-11.20,-0.48,-0.62,-0.28,-0.55,1012.81
1.587,-1.06,-0.34,-0.49,-13.60,-11.20,-0.48,-0.62,-0.28,-0.55,1012.82
1.604,2.30,0.96,-0.35,-13.60,-11.20,-0.48,-0.62,-0.28,-0.55,1012.82
1.606,2.30,0.96,-0.35,-13.60,-11.20,-0.48,-0.27,-1.27,1.70,1012.82
1.607,2.30,0.96,-0.35,18.73,1.61,0.93,-0.27,-1.27,1.70,1012.82
1.666,0.00,1.02,-0.65,18.73,1.61,0.93,-0.27,-1.27,1.70,1012.82
1.67,0.00,1.02,-0.65,18.73,1.61,0.93,0.00,1.16,-1.42,1012.82
1.672,0.00,1.02,-0.65,-3.51,2.02,-2.17,0.00,1.16,-1.42,1012.82
1.675,0.00,1.02,-0.65,-3.51,2.02,-2.17,0.00,1.16,-1.42,1012.82
1.704,0.32,0.86,-0.56,-3.51,2.02,-2.17,0.00,1.16,-1.42,1012.82
1.708,0.32,0.86,-0.56,-3.51,2.02,-2.17,-0.29,0.61,-0.71,1012.82
1.711,0.32,0.86,-0.56,-0.20,0.31,-1.37,-0.29,0.61,-0.71,1012.82
1.715,0.32,0.86,-0.56,-0.20,0.31,-1.37,-0.29,0.61,-0.71,1012.81
1.724,0.40,0.82,-0.45,-0.20,0.31,-1.37,-0.29,0.61,-0.71,1012.81
1.726,0.40,0.82,-0.45,-0.20,0.31,-1.37,-0.49,0.29,-0.73,1012.81
1.726,0.40,0.82,-0.45,0.73,-0.32,-0.54,-0.49,0.29,-0.73,1012.81
1.775,0.16,0.88,-0.34,0.73,-0.32,-0.54,-0.49,0.29,-0.73,1012.81
1.777,0.16,0.88,-0.34,0.73,-0.32,-0.54,-0.51,0.51,-0.90,1012.81
1.778,0.16,0.88,-0.34,-1.40,0.12,0.31,-0.51,0.51,-0.90,1012.81
1.779,0.16,0.88,-0.34,-1.40,0.12,0.31,-0.51,0.51,-0.90,1012.81
1.806,-0.06,0.90,-0.29,-1.40,0.12,0.31,-0.51,0.51,-0.90,1012.81
1.808,-0.06,0.90,-0.29,-1.40,0.12,0.31,-0.44,0.34,-0.72,1012.81
1.809,-0.06,0.90,-0.29,-3.27,0.20,0.65,-0.44,0.34,-0.72,1012.81
1.827,-0.06,0.90,-0.29,-3.27,0.20,0.65,-0.44,0.34,-0.72,1012.82
1.84,-0.03,0.87,-0.22,-3.27,0.20,0.65,-0.44,0.34,-0.72,1012.82
1.841,-0.03,0.87,-0.22,-3.27,0.20,0.65,-0.35,0.14,-0.27,1012.82
1.853,-0.03,0.87,-0.22,-2.87,-0.24,1.20,-0.35,0.14,-0.27,1012.82
1.888,0.05,0.97,-0.26,-2.87,-0.24,1.20,-0.35,0.14,-0.27,1012.82
1.89,0.05,0.97,-0.26,-2.87,-0.24,1.20,-0.30,-0.26,0.18,1012.82
1.891,0.05,0.97,-0.26,-2.05,0.75,0.65,-0.30,-0.26,0.18,1012.82
1.892,0.05,0.97,-0.26,-2.05,0.75,0.65,-0.30,-0.26,0.18,1012.82
1.92,0.35,1.10,-0.29,-2.05,0.75,0.65,-0.30,-0.26,0.18,1012.82
1.921,0.35,1.10,-0.29,-2.05,0.75,0.65,-0.25,-0.30,0.45,1012.82
1.922,0.35,1.10,-0.29,0.71,1.99,0.37,-0.25,-0.30,0.45,1012.82
1.964,0.35,1.10,-0.29,0.71,1.99,0.37,-0.25,-0.30,0.45,1012.82
1.968,0.59,1.15,-0.39,0.71,1.99,0.37,-0.25,-0.30,0.45,1012.82
1.97,0.59,1.15,-0.39,0.71,1.99,0.37,-0.19,0.13,0.33,1012.82
1.972,0.59,1.15,-0.39,2.88,2.44,-0.76,-0.19,0.13,0.33,1012.82
1.998,0.47,1.43,-0.40,2.88,2.44,-0.76,-0.19,0.13,0.33,1012.82
1.999,0.47,1.43,-0.40,2.88,2.44,-0.76,-0.28,0.76,-0.10,1012.82
2.0,0.47,1.43,-0.40,1.68,5.06,-0.96,-0.28,0.76,-0.10,1012.82
2.008,0.47,1.43,-0.40,1.68,5.06,-0.96,-0.28,0.76,-0.10,1012.82
2.038,-0.26,1.59,-0.23,1.68,5.06,-0.96,-0.28,0.76,-0.10,1012.82
2.041,-0.26,1.59,-0.23,1.68,5.06,-0.96,-0.60,0.75,-0.26,1012.82
2.044,-0.26,1.59,-0.23,-5.37,6.45,0.35,-0.60,0.75,-0.26,1012.82
2.068,-0.26,1.59,-0.23,-5.37,6.45,0.35,-0.60,0.75,-0.26,1012.82
2.106,-0.70,1.39,-0.16,-5.37,6.45,0.35,-0.60,0.75,-0.26,1012.82
2.112,-0.70,1.39,-0.16,-5.37,6.45,0.35,-0.41,0.42,0.33,1012.82
2.113,-0.70,1.39,-0.16,-9.72,4.37,0.85,-0.41,0.42,0.33,1012.82
2.118,0.42,1.73,-0.71,-9.72,4.37,0.85,-0.41,0.42,0.33,1012.82
2.12,0.42,1.73,-0.71,-9.72,4.37,0.85,0.94,-0.25,2.79,1012.82
2.123,0.42,1.73,-0.71,0.25,8.09,-4.08,0.94,-0.25,2.79,1012.82
2.13,0.42,1.73,-0.71,0.25,8.09,-4.08,0.94,-0.25,2.79,1012.82
2.156,1.11,1.45,-0.53,0.25,8.09,-4.08,0.94,-0.25,2.79,1012.82
2.159,1.11,1.45,-0.53,0.25,8.09,-4.08,1.61,-0.35,3.93,1012.82
2.184,1.11,1.45,-0.53,5.63,6.10,-1.75,1.61,-0.35,3.93,1012.82
2.188,1.11,1.45,-0.53,5.63,6.10,-1.75,1.61,-0.35,3.93,1012.81
2.223,0.87,1.20,-0.48,5.63,6.10,-1.75,1.61,-0.35,3.93,1012.81
2.225,0.87,1.20,-0.48,5.63,6.10,-1.75,1.72,1.47,3.22,1012.81
2.226,0.87,1.20,-0.48,2.15,4.60,-1.02,1.72,1.47,3.22,1012.81
2.234,0.39,1.02,-0.27,2.15,4.60,-1.02,1.72,1.47,3.22,1012.81
2.235,0.39,1.02,-0.27,2.15,4.60,-1.02,1.17,1.79,2.52,1012.81
2.236,0.39,1.02,-0.27,-3.43,3.59,0.83,1.17,1.79,2.52,1012.81
2.246,0.39,1.02,-0.27,-3.43,3.59,0.83,1.17,1.79,2.52,1012.81
2.278,-0.06,0.50,-0.05,-3.43,3.59,0.83,1.17,1.79,2.52,1012.81
2.282,-0.06,0.50,-0.05,-3.43,3.59,0.83,0.44,-0.01,1.69,1012.81
2.284,-0.06,0.50,-0.05,-8.12,-0.97,3.04,0.44,-0.01,1.69,1012.81
2.311,-0.06,0.50,-0.05,-8.12,-0.97,3.04,0.44,-0.01,1.69,1012.80
2.316,-0.02,0.16,0.15,-8.12,-0.97,3.04,0.44,-0.01,1.69,1012.80
2.319,-0.02,0.16,0.15,-7.54,-3.98,5.43,0.44,-0.01,1.69,1012.80
2.322,-0.02,0.16,0.15,-7.54,-3.98,5.43,0.01,-1.55,0.62,1012.80
2.355,0.13,0.11,0.13,-7.54,-3.98,5.43,0.01,-1.55,0.62,1012.80
2.358,0.13,0.11,0.13,-7.54,-3.98,5.43,-0.34,-1.14,-0.88,1012.80
2.358,0.13,0.11,0.13,-5.58,-4.72,5.35,-0.34,-1.14,-0.88,1012.80
2.376,0.13,0.11,0.13,-5.58,-4.72,5.35,-0.34,-1.14,-0.88,1012.80
2.394,-0.02,-0.04,-0.03,-5.58,-4.72,5.35,-0.34,-1.14,-0.88,1012.80
2.396,-0.02,-0.04,-0.03,-5.58,-4.72,5.35,-0.76,-0.59,-2.45,1012.80
2.397,-0.02,-0.04,-0.03,-6.25,-6.86,3.66,-0.76,-0.59,-2.45,1012.80
2.427,-0.02,-0.04,-0.03,-6.25,-6.86,3.66,-0.76,-0.59,-2.45,1012.78
2.434,0.28,-0.20,-0.47,-6.25,-6.86,3.66,-0.76,-0.59,-2.45,1012.78
2.436,0.28,-0.20,-0.47,-6.25,-6.86,3.66,-1.15,-1.74,-2.97,1012.78
2.438,0.28,-0.20,-0.47,-2.20,-9.02,-0.51,-1.15,-1.74,-2.97,1012.78
2.483,1.33,-0.34,-0.72,-2.20,-9.02,-0.51,-1.15,-1.74,-2.97,1012.78
2.486,1.33,-0.34,-0.72,-2.20,-9.02,-0.51,-1.39,-2.28,-1.98,1012.78
2.487,1.33,-0.34,-0.72,8.89,-10.87,-2.94,-1.39,-2.28,-1.98,1012.78
2.488,1.33,-0.34,-0.72,8.89,-10.87,-2.94,-1.39,-2.28,-1.98,1012.77
2.513,1.25,-0.90,-1.05,8.89,-10.87,-2.94,-1.39,-2.28,-1.98,1012.77
2.514,1.25,-0.90,-1.05,8.89,-10.87,-2.94,-0.67,-0.55,-1.00,1012.77
2.515,1.25,-0.90,-1.05,8.31,-16.30,-6.22,-0.67,-0.55,-1.00,1012.77
2.546,1.25,-0.90,-1.05,8.31,-16.30,-6.22,-0.67,-0.55,-1.00,1012.77
2.552,1.25,-0.90,-1.05,12.58,1.56,0.99,-0.67,-0.55,-1.00,1012.77
2.553,1.73,0.90,-0.33,12.58,1.56,0.99,-0.67,-0.55,-1.00,1012.77
2.554,1.73,0.90,-0.33,12.58,1.56,0.99,0.72,0.46,0.74,1012.77
2.592,1.73,0.90,-0.33,-8.85,11.80,-5.42,0.72,0.46,0.74,1012.77
2.593,-0.49,1.98,-0.99,-8.85,11.80,-5.42,0.72,0.46,0.74,1012.77
2.594,-0.49,1.98,-0.99,-8.85,11.80,-5.42,0.78,1.54,-1.65,1012.77
2.606,-0.49,1.98,-0.99,-8.85,11.80,-5.42,0.78,1.54,-1.65,1012.78
2.631,0.61,0.38,-0.55,-8.85,11.80,-5.42,0.78,1.54,-1.65,1012.78
2.635,0.61,0.38,-0.55,-8.85,11.80,-5.42,-0.90,-1.27,0.60,1012.78
2.637,0.61,0.38,-0.55,1.98,-3.90,-1.17,-0.90,-1.27,0.60,1012.78
2.666,0.61,0.38,-0.55,1.98,-3.90,-1.17,-0.90,-1.27,0.60,1012.78
2.671,0.89,0.81,-0.40,1.98,-3.90,-1.17,-0.90,-1.27,0.60,1012.78
2.672,0.89,0.81,-0.40,1.98,-3.90,-1.17,-0.57,-0.82,0.05,1012.78
2.672,0.89,0.81,-0.40,4.69,0.22,0.24,-0.57,-0.82,0.05,1012.78
2.715,0.37,1.10,-0.48,4.69,0.22,0.24,-0.57,-0.82,0.05,1012.78
2.717,0.37,1.10,-0.48,4.69,0.22,0.24,-0.45,0.25,-0.66,1012.78
2.718,0.37,1.10,-0.48,-0.17,2.86,-0.68,-0.45,0.25,-0.66,1012.78
2.726,0.37,1.10,-0.48,-0.17,2.86,-0.68,-0.45,0.25,-0.66,1012.78
2.75,0.53,0.84,-0.30,-0.17,2.86,-0.68,-0.45,0.25,-0.66,1012.78
2.752,0.53,0.84,-0.30,-0.17,2.86,-0.68,-0.57,-0.17,-0.62,1012.78
2.753,0.53,0.84,-0.30,1.53,0.13,0.90,-0.57,-0.17,-0.62,1012.78
2.787,0.53,0.84,-0.30,1.53,0.13,0.90,-0.57,-0.17,-0.62,1012.76
2.789,0.47,0.83,-0.37,1.53,0.13,0.90,-0.57,-0.17,-0.62,1012.76
2.791,0.47,0.83,-0.37,1.53,0.13,0.90,-0.44,0.11,-0.81,1012.76
2.792,0.47,0.83,-0.37,1.19,-0.18,0.05,-0.44,0.11,-0.81,1012.76
2.829,0.47,0.83,-0.37,-1.86,0.19,-0.51,-0.44,0.11,-0.81,1012.76
2.833,0.13,0.88,-0.41,-1.86,0.19,-0.51,-0.44,0.11,-0.81,1012.76
2.835,0.13,0.88,-0.41,-1.86,0.19,-0.51,-0.43,0.44,-0.97,1012.76
2.846,0.13,0.88,-0.41,-1.86,0.19,-0.51,-0.43,0.44,-0.97,1012.75
2.878,0.04,0.91,-0.26,-1.86,0.19,-0.51,-0.43,0.44,-0.97,1012.75
2.879,0.04,0.91,-0.26,-1.86,0.19,-0.51,-0.47,0.17,-0.72,1012.75
2.88,0.04,0.91,-0.26,-2.47,0.24,0.72,-0.47,0.17,-0.72,1012.75
2.908,0.04,0.91,-0.26,-2.47,0.24,0.72,-0.47,0.17,-0.72,1012.76
2.91,-0.02,0.91,-0.23,-2.47,0.24,0.72,-0.47,0.17,-0.72,1012.76
2.911,-0.02,0.91,-0.23,-2.47,0.24,0.72,-0.35,-0.02,-0.39,1012.76
2.912,-0.02,0.91,-0.23,-2.91,0.22,0.94,-0.35,-0.02,-0.39,1012.76
2.954,0.11,0.94,-0.22,-2.91,0.22,0.94,-0.35,-0.02,-0.39,1012.76
2.957,0.11,0.94,-0.22,-2.91,0.22,0.94,-0.18,-0.28,-0.04,1012.76
2.959,0.11,0.94,-0.22,-1.54,0.49,0.92,-0.18,-0.28,-0.04,1012.76
2.992,0.11,0.94,-0.22,-1.54,0.49,0.92,-0.18,-0.28,-0.04,1012.77
2.993,0.23,1.08,-0.36,-1.54,0.49,0.92,-0.18,-0.28,-0.04,1012.77
2.995,0.23,1.08,-0.36,-1.54,0.49,0.92,-0.11,-0.34,0.15,1012.77
2.996,0.23,1.08,-0.36,-0.34,1.76,-0.40,-0.11,-0.34,0.15,1012.77
3.026,0.22,1.32,-0.43,-0.34,1.76,-0.40,-0.11,-0.34,0.15,1012.77
3.03,0.22,1.32,-0.43,-0.34,1.76,-0.40,-0.14,0.02,0.13,1012.77
3.032,0.22,1.32,-0.43,-0.34,1.76,-0.40,-0.14,0.02,0.13,1012.77
3.034,0.22,1.32,-0.43,-0.49,4.06,-1.13,-0.14,0.02,0.13,1012.77
3.077,0.31,1.41,-0.13,-0.49,4.06,-1.13,-0.14,0.02,0.13,1012.77
3.078,0.31,1.41,-0.13,-0.49,4.06,-1.13,-0.29,0.47,0.21,1012.77
3.079,0.31,1.41,-0.13,0.27,4.85,1.60,-0.29,0.47,0.21,1012.77
3.086,0.31,1.41,-0.13,0.27,4.85,1.60,-0.29,0.47,0.21,1012.76
3.108,-0.05,1.64,-0.11,0.27,4.85,1.60,-0.29,0.47,0.21,1012.76
3.111,-0.05,1.64,-0.11,0.27,4.85,1.60,-0.14,0.88,0.21,1012.76
3.112,-0.05,1.64,-0.11,-3.39,7.02,1.68,-0.14,0.88,0.21,1012.76
3.166,-0.05,1.64,-0.11,-7.69,7.51,0.13,-0.14,0.88,0.21,1012.76
3.17,-0.47,1.70,-0.25,-7.69,7.51,0.13,-0.14,0.88,0.21,1012.76
3.173,-0.47,1.70,-0.25,-7.69,7.51,0.13,-0.21,0.70,0.62,1012.76
3.175,-0.47,1.70,-0.25,-7.69,7.51,0.13,-0.21,0.70,0.62,1012.75
3.202,-0.26,1.43,-0.44,-7.69,7.51,0.13,-0.21,0.70,0.62,1012.75
3.204,-0.26,1.43,-0.44,-7.69,7.51,0.13,-0.08,0.27,1.07,1012.75
3.206,-0.26,1.43,-0.44,-5.90,4.90,-1.76,-0.08,0.27,1.07,1012.75
3.207,-0.26,1.43,-0.44,-5.90,4.90,-1.76,-0.08,0.27,1.07,1012.75
3.223,1.19,1.61,-0.59,-5.90,4.90,-1.76,-0.08,0.27,1.07,1012.75
3.224,1.19,1.61,-0.59,-5.90,4.90,-1.76,1.07,-0.30,3.21,1012.75
3.225,1.19,1.61,-0.59,7.08,7.19,-2.77,1.07,-0.30,3.21,1012.75
3.275,1.29,1.23,-0.53,7.08,7.19,-2.77,1.07,-0.30,3.21,1012.75
3.276,1.29,1.23,-0.53,7.08,7.19,-2.77,2.00,0.37,3.80,1012.75
3.277,1.29,1.23,-0.53,6.71,4.41,-1.58,2.00,0.37,3.80,1012.75
3.277,1.29,1.23,-0.53,6.71,4.41,-1.58,2.00,0.37,3.80,1012.75
3.302,0.89,0.86,-0.40,6.71,4.41,-1.58,2.00,0.37,3.80,1012.75
3.303,0.89,0.86,-0.40,6.71,4.41,-1.58,1.94,1.02,3.07,1012.75
3.304,0.89,0.86,-0.40,1.70,1.84,-0.09,1.94,1.02,3.07,1012.75
3.327,0.89,0.86,-0.40,1.70,1.84,-0.09,1.94,1.02,3.07,1012.75
3.346,0.36,0.62,-0.07,1.70,1.84,-0.09,1.94,1.02,3.07,1012.75
3.349,0.36,0.62,-0.07,1.70,1.84,-0.09,1.10,0.57,1.97,1012.75
3.35,0.36,0.62,-0.07,-3.94,0.18,3.18,1.10,0.57,1.97,1012.75
3.397,-0.15,0.00,0.22,-3.94,0.18,3.18,1.10,0.57,1.97,1012.75
3.4,-0.15,0.00,0.22,-3.94,0.18,3.18,0.39,0.19,0.59,1012.75
3.402,-0.15,0.00,0.22,-8.96,-5.52,6.01,0.39,0.19,0.59,1012.75
3.403,-0.15,0.00,0.22,-8.96,-5.52,6.01,0.39,0.19,0.59,1012.75
3.438,-0.11,-0.01,0.23,-8.96,-5.52,6.01,0.39,0.19,0.59,1012.75
3.441,-0.11,-0.01,0.23,-8.96,-5.52,6.01,0.15,-0.02,-0.87,1012.75
3.443,-0.11,-0.01,0.23,-8.26,-5.81,5.99,0.15,-0.02,-0.87,1012.75
3.449,-0.11,-0.01,0.23,-8.26,-5.81,5.99,0.15,-0.02,-0.87,1012.73
3.465,-0.20,0.09,0.03,-8.26,-5.81,5.99,0.15,-0.02,-0.87,1012.73
3.466,-0.20,0.09,0.03,-8.26,-5.81,5.99,-0.33,-0.35,-2.39,1012.73
3.467,-0.20,0.09,0.03,-8.37,-5.36,4.02,-0.33,-0.35,-2.39,1012.73
3.5,0.12,-0.30,-0.09,-8.37,-5.36,4.02,-0.33,-0.35,-2.39,1012.73
3.501,0.12,-0.30,-0.09,-8.37,-5.36,4.02,-0.98,-1.27,-3.12,1012.73
3.502,0.12,-0.30,-0.09,-4.16,-9.95,2.85,-0.98,-1.27,-3.12,1012.73
3.504,0.12,-0.30,-0.09,-4.16,-9.95,2.85,-0.98,-1.27,-3.12,1012.72
3.54,0.71,-0.56,-0.54,-4.16,-9.95,2.85,-0.98,-1.27,-3.12,1012.72
3.544,0.71,-0.56,-0.54,-4.16,-9.95,2.85,-1.07,-1.78,-2.85,1012.72
3.546,0.71,-0.56,-0.54,2.70,-12.91,-1.56,-1.07,-1.78,-2.85,1012.72
3.571,0.71,-0.56,-0.54,2.70,-12.91,-1.56,-1.07,-1.78,-2.85,1012.71
3.617,1.55,-0.41,-0.70,2.70,-12.91,-1.56,-1.07,-1.78,-2.85,1012.71
3.62,1.55,-0.41,-0.70,2.70,-12.91,-1.56,-0.54,-0.34,-1.62,1012.71
3.621,1.55,-0.41,-0.70,11.28,-11.60,-3.14,-0.54,-0.34,-1.62,1012.71
3.623,1.23,0.68,-0.95,11.28,-11.60,-3.14,-0.54,-0.34,-1.62,1012.71
3.624,1.23,0.68,-0.95,11.28,-11.60,-3.14,0.77,0.97,-0.75,1012.71
3.625,1.23,0.68,-0.95,8.10,-0.88,-5.39,0.77,0.97,-0.75,1012.71
3.626,1.23,0.68,-0.95,8.10,-0.88,-5.39,0.77,0.97,-0.75,1012.71
3.659,0.26,2.88,-0.56,8.10,-0.88,-5.39,0.77,0.97,-0.75,1012.71
3.663,0.26,2.88,-0.56,8.10,-0.88,-5.39,0.66,0.59,0.07,1012.71
3.665,0.26,2.88,-0.56,-1.50,20.37,-1.50,0.66,0.59,0.07,1012.71
3.693,0.26,2.88,-0.56,-1.50,20.37,-1.50,0.66,0.59,0.07,1012.71
3.698,-0.05,-0.67,-0.59,-1.50,20.37,-1.50,0.66,0.59,0.07,1012.71
3.7,-0.05,-0.67,-0.59,-1.50,20.37,-1.50,-0.52,-1.79,0.38,1012.71
3.701,-0.05,-0.67,-0.59,-4.35,-14.14,-1.63,-0.52,-1.79,0.38,1012.71
3.738,2.03,1.10,-0.46,-4.35,-14.14,-1.63,-0.52,-1.79,0.38,1012.71
3.742,2.03,1.10,-0.46,-4.35,-14.14,-1.63,-0.02,-0.65,0.84,1012.71
3.745,2.03,1.10,-0.46,15.68,3.30,-0.27,-0.02,-0.65,0.84,1012.71
3.748,2.03,1.10,-0.46,15.68,3.30,-0.27,-0.02,-0.65,0.84,1012.71
3.78,-0.47,1.07,-0.72,15.68,3.30,-0.27,-0.02,-0.65,0.84,1012.71
3.784,-0.47,1.07,-0.72,15.68,3.30,-0.27,0.07,0.93,-1.29,1012.71
3.786,-0.47,1.07,-0.72,-8.48,2.69,-2.87,0.07,0.93,-1.29,1012.71
3.813,-0.47,1.07,-0.72,-8.48,2.69,-2.87,0.07,0.93,-1.29,1012.71
3.816,0.97,0.86,-0.40,-8.48,2.69,-2.87,0.07,0.93,-1.29,1012.71
3.817,0.97,0.86,-0.40,-8.48,2.69,-2.87,-0.51,-0.89,0.02,1012.71
3.818,0.97,0.86,-0.40,5.71,0.55,0.24,-0.51,-0.89,0.02,1012.71
3.856,0.97,0.86,-0.40,1.15,0.65,0.14,-0.51,-0.89,0.02,1012.71
3.858,0.49,0.89,-0.40,1.15,0.65,0.14,-0.51,-0.89,0.02,1012.71
3.858,0.49,0.89,-0.40,1.15,0.65,0.14,-0.32,0.24,-0.86,1012.71
3.873,0.49,0.89,-0.40,1.15,0.65,0.14,-0.32,0.24,-0.86,1012.71
3.895,0.25,0.93,-0.43,1.15,0.65,0.14,-0.32,0.24,-0.86,1012.71
3.897,0.25,0.93,-0.43,1.15,0.65,0.14,-0.30,0.43,-1.00,1012.71
3.897,0.25,0.93,-0.43,-0.91,0.85,-0.33,-0.30,0.43,-1.00,1012.71
3.924,0.25,0.93,-0.43,-0.91,0.85,-0.33,-0.30,0.43,-1.00,1012.71
3.935,0.29,0.84,-0.30,-0.91,0.85,-0.33,-0.30,0.43,-1.00,1012.71
3.937,0.29,0.84,-0.30,-0.91,0.85,-0.33,-0.34,0.25,-0.93,1012.71
3.939,0.29,0.84,-0.30,-0.21,-0.22,0.72,-0.34,0.25,-0.93,1012.71
3.984,0.02,0.83,-0.29,-0.21,-0.22,0.72,-0.34,0.25,-0.93,1012.71
3.987,0.02,0.83,-0.29,-0.21,-0.22,0.72,-0.14,0.82,-0.89,1012.71
3.989,0.02,0.83,-0.29,-2.60,-0.42,0.71,-0.14,0.82,-0.89,1012.71
3.991,0.02,0.83,-0.29,-2.60,-0.42,0.71,-0.14,0.82,-0.89,1012.70
4.036,-0.24,0.84,-0.29,-2.60,-0.42,0.71,-0.14,0.82,-0.89,1012.70
4.04,-0.24,0.84,-0.29,-2.60,-0.42,0.71,-0.02,0.72,-0.48,1012.70
4.041,-0.24,0.84,-0.29,-5.07,-0.35,0.60,-0.02,0.72,-0.48,1012.70
4.044,-0.24,0.84,-0.29,-5.07,-0.35,0.60,-0.02,0.72,-0.48,1012.70
4.053,0.11,0.87,-0.49,-5.07,-0.35,0.60,-0.02,0.72,-0.48,1012.70
4.055,0.11,0.87,-0.49,-5.07,-0.35,0.60,-0.09,-0.17,0.10,1012.70
4.056,0.11,0.87,-0.49,-1.60,-0.07,-1.33,-0.09,-0.17,0.10,1012.70
4.094,0.50,1.21,-0.55,-1.60,-0.07,-1.33,-0.09,-0.17,0.10,1012.70
4.095,0.50,1.21,-0.55,-1.60,-0.07,-1.33,-0.39,-0.45,0.19,1012.70
4.096,0.50,1.21,-0.55,2.21,3.16,-1.99,-0.39,-0.45,0.19,1012.70
4.104,0.50,1.21,-0.55,2.21,3.16,-1.99,-0.39,-0.45,0.19,1012.71
4.132,0.47,1.36,-0.21,2.21,3.16,-1.99,-0.39,-0.45,0.19,1012.71
4.133,0.47,1.36,-0.21,2.21,3.16,-1.99,-0.61,0.27,-0.20,1012.71
4.135,0.47,1.36,-0.21,1.91,4.46,1.07,-0.61,0.27,-0.20,1012.71
4.179,0.47,1.36,-0.21,1.91,4.46,1.07,-0.61,0.27,-0.20,1012.72
4.182,0.24,1.43,-0.03,1.91,4.46,1.07,-0.61,0.27,-0.20,1012.72
4.184,0.24,1.43,-0.03,1.91,4.46,1.07,-0.39,1.08,-0.44,1012.72
4.186,0.24,1.43,-0.03,-0.33,5.00,2.61,-0.39,1.08,-0.44,1012.72
4.227,-0.48,1.57,-0.24,-0.33,5.00,2.61,-0.39,1.08,-0.44,1012.72
4.23,-0.48,1.57,-0.24,-0.33,5.00,2.61,-0.41,1.03,-0.27,1012.72
4.23,-0.48,1.57,-0.24,-7.31,6.23,0.20,-0.41,1.03,-0.27,1012.72
4.231,-0.48,1.57,-0.24,-7.31,6.23,0.20,-0.41,1.03,-0.27,1012.73
4.251,-1.09,1.43,-0.28,-7.31,6.23,0.20,-0.41,1.03,-0.27,1012.73
4.254,-1.09,1.43,-0.28,-7.31,6.23,0.20,-0.48,-0.36,0.51,1012.73
4.256,-1.09,1.43,-0.28,-13.16,4.79,-0.23,-0.48,-0.36,0.51,1012.73
4.284,-1.09,1.43,-0.28,-13.16,4.79,-0.23,-0.48,-0.36,0.51,1012.72
4.29,0.99,1.71,-0.70,-13.16,4.79,-0.23,-0.48,-0.36,0.51,1012.72
4.291,0.99,1.71,-0.70,-13.16,4.79,-0.23,0.86,-1.46,3.77,1012.72
4.292,0.99,1.71,-0.70,5.95,7.90,-3.86,0.86,-1.46,3.77,1012.72
4.329,1.25,1.60,-0.60,5.95,7.90,-3.86,0.86,-1.46,3.77,1012.72
4.332,1.25,1.60,-0.60,5.95,7.90,-3.86,1.98,0.34,4.11,1012.72
4.333,1.25,1.60,-0.60,6.89,7.66,-2.28,1.98,0.34,4.11,1012.72
4.345,1.25,1.60,-0.60,6.89,7.66,-2.28,1.98,0.34,4.11,1012.71
4.371,0.68,1.09,-0.43,6.89,7.66,-2.28,1.98,0.34,4.11,1012.71
4.373,0.68,1.09,-0.43,6.89,7.66,-2.28,1.86,2.21,3.28,1012.71
4.375,0.68,1.09,-0.43,0.09,3.63,-0.53,1.86,2.21,3.28,1012.71
4.405,0.68,1.09,-0.43,0.09,3.63,-0.53,1.86,2.21,3.28,1012.71
4.437,0.40,0.75,-0.25,0.09,3.63,-0.53,1.86,2.21,3.28,1012.71
4.441,0.40,0.75,-0.25,0.09,3.63,-0.53,1.16,1.51,2.51,1012.71
4.444,0.40,0.75,-0.25,-3.50,1.17,1.13,1.16,1.51,2.51,1012.71
4.449,-0.10,0.31,-0.01,-3.50,1.17,1.13,1.16,1.51,2.51,1012.71
4.452,-0.10,0.31,-0.01,-3.50,1.17,1.13,0.51,0.06,1.24,1012.71
4.453,-0.10,0.31,-0.01,-8.51,-2.67,3.51,0.51,0.06,1.24,1012.71
4.464,-0.10,0.31,-0.01,-8.51,-2.67,3.51,0.51,0.06,1.24,1012.70
4.495,-0.09,0.06,0.08,-8.51,-2.67,3.51,0.51,0.06,1.24,1012.70
4.497,-0.09,0.06,0.08,-8.51,-2.67,3.51,0.27,-0.87,-0.06,1012.70
4.498,-0.09,0.06,0.08,-8.18,-5.02,4.58,0.27,-0.87,-0.06,1012.70
4.523,-0.09,0.06,0.08,-8.18,-5.02,4.58,0.27,-0.87,-0.06,1012.68
4.527,0.03,0.19,-0.02,-8.18,-5.02,4.58,0.27,-0.87,-0.06,1012.68
4.527,0.03,0.19,-0.02,-8.18,-5.02,4.58,0.03,-0.96,-1.36,1012.68
4.528,0.03,0.19,-0.02,-6.44,-4.06,3.85,0.03,-0.96,-1.36,1012.68
4.58,0.03,0.19,-0.02,-4.44,-7.71,3.16,0.03,-0.96,-1.36,1012.68
4.583,0.15,-0.13,-0.10,-4.44,-7.71,3.16,0.03,-0.96,-1.36,1012.68
4.584,0.15,-0.13,-0.10,-4.44,-7.71,3.16,-0.20,-0.80,-2.41,1012.68
4.586,0.15,-0.13,-0.10,-4.44,-7.71,3.16,-0.20,-0.80,-2.41,1012.66
4.617,0.60,-0.31,-0.26,-4.44,-7.71,3.16,-0.20,-0.80,-2.41,1012.66
4.618,0.60,-0.31,-0.26,-4.44,-7.71,3.16,-0.28,-0.47,-3.20,1012.66
4.619,0.60,-0.31,-0.26,0.85,-9.99,1.61,-0.28,-0.47,-3.20,1012.66
4.647,0.60,-0.31,-0.26,5.47,-11.47,-0.61,-0.28,-0.47,-3.20,1012.66
4.649,0.60,-0.31,-0.26,5.47,-11.47,-0.61,-0.28,-0.47,-3.20,1012.65
4.65,0.99,-0.42,-0.48,5.47,-11.47,-0.61,-0.28,-0.47,-3.20,1012.65
4.651,0.99,-0.42,-0.48,5.47,-11.47,-0.61,-0.16,-0.15,-3.06,1012.65
4.697,1.21,-0.30,-0.44,5.47,-11.47,-0.61,-0.16,-0.15,-3.06,1012.65
4.699,1.21,-0.30,-0.44,5.47,-11.47,-0.61,0.21,0.20,-1.77,1012.65
4.7,1.21,-0.30,-0.44,8.04,-10.34,-0.16,0.21,0.20,-1.77,1012.65
4.705,1.21,-0.30,-0.44,8.04,-10.34,-0.16,0.21,0.20,-1.77,1012.65
4.736,0.97,0.22,-0.35,8.04,-10.34,-0.16,0.21,0.20,-1.77,1012.65
4.738,0.97,0.22,-0.35,8.04,-10.34,-0.16,0.78,0.44,-0.74,1012.65
4.74,0.97,0.22,-0.35,5.70,-5.18,0.84,0.78,0.44,-0.74,1012.65
4.774,0.90,3.33,-0.95,5.70,-5.18,0.84,0.78,0.44,-0.74,1012.65
4.781,0.90,3.33,-0.95,5.70,-5.18,0.84,0.76,0.34,0.07,1012.65
4.783,0.90,3.33,-0.95,4.86,25.09,-4.78,0.76,0.34,0.07,1012.65
4.785,0.90,3.33,-0.95,4.86,25.09,-4.78,0.76,0.34,0.07,1012.67
4.812,-0.72,-0.52,-0.93,4.86,25.09,-4.78,0.76,0.34,0.07,1012.67
4.813,-0.72,-0.52,-0.93,4.86,25.09,-4.78,-0.54,-1.34,-0.25,1012.67
4.814,-0.72,-0.52,-0.93,-10.51,-12.56,-4.48,-0.54,-1.34,-0.25,1012.67
4.822,-0.72,-0.52,-0.93,-10.51,-12.56,-4.48,-0.54,-1.34,-0.25,1012.67
4.846,-0.72,-0.52,-0.93,18.59,2.65,1.25,-0.54,-1.34,-0.25,1012.67
4.848,2.29,1.03,-0.35,18.59,2.65,1.25,-0.54,-1.34,-0.25,1012.67
4.848,2.29,1.03,-0.35,18.59,2.65,1.25,-0.36,-1.20,1.04,1012.67
4.899,-0.29,0.94,-0.64,18.59,2.65,1.25,-0.36,-1.20,1.04,1012.67
4.9,-0.29,0.94,-0.64,-6.37,1.45,-1.76,-0.36,-1.20,1.04,1012.67
4.901,-0.29,0.94,-0.64,-6.37,1.45,-1.76,-0.19,1.17,-1.57,1012.67
4.902,-0.29,0.94,-0.64,-6.37,1.45,-1.76,-0.19,1.17,-1.57,1012.66
4.929,0.58,0.93,-0.54,-6.37,1.45,-1.76,-0.19,1.17,-1.57,1012.66
4.93,0.58,0.93,-0.54,-6.37,1.45,-1.76,-0.63,-0.65,-0.48,1012.66
4.931,0.58,0.93,-0.54,2.43,1.12,-0.91,-0.63,-0.65,-0.48,1012.66
4.943,0.58,0.93,-0.54,2.43,1.12,-0.91,-0.63,-0.65,-0.48,1012.66
4.966,0.57,0.77,-0.33,2.43,1.12,-0.91,-0.63,-0.65,-0.48,1012.66
4.969,0.57,0.77,-0.33,2.43,1.12,-0.91,-0.68,0.03,-0.86,1012.66
4.971,0.57,0.77,-0.33,2.49,-0.66,0.93,-0.68,0.03,-0.86,1012.66
5.015,0.01,0.87,-0.45,2.49,-0.66,0.93,-0.68,0.03,-0.86,1012.66
5.016,0.01,0.87,-0.45,2.49,-0.66,0.93,-0.47,0.85,-1.16,1012.66
5.017,0.01,0.87,-0.45,2.49,-0.66,0.93,-0.47,0.85,-1.16,1012.67
5.017,0.01,0.87,-0.45,-2.67,0.15,-0.46,-0.47,0.85,-1.16,1012.67
5.042,-0.10,0.86,-0.35,-2.67,0.15,-0.46,-0.47,0.85,-1.16,1012.67
5.044,-0.10,0.86,-0.35,-2.67,0.15,-0.46,-0.54,0.33,-0.85,1012.67
5.045,-0.10,0.86,-0.35,-3.47,-0.13,0.27,-0.54,0.33,-0.85,1012.67
5.063,-0.10,0.86,-0.35,-3.47,-0.13,0.27,-0.54,0.33,-0.85,1012.68
5.096,-0.03,0.82,-0.25,-3.47,-0.13,0.27,-0.54,0.33,-0.85,1012.68
5.097,-0.03,0.82,-0.25,-3.47,-0.13,0.27,-0.45,0.12,-0.46,1012.68
5.098,-0.03,0.82,-0.25,-2.61,-0.61,1.06,-0.45,0.12,-0.46,1012.68
5.14,-0.06,0.89,-0.13,-2.61,-0.61,1.06,-0.45,0.12,-0.46,1012.68
5.144,-0.06,0.89,-0.13,-2.61,-0.61,1.06,-0.22,-0.05,-0.11,1012.68
5.146,-0.06,0.89,-0.13,-2.61,-0.61,1.06,-0.22,-0.05,-0.11,1012.68
5.148,-0.06,0.89,-0.13,-2.83,0.02,2.09,-0.22,-0.05,-0.11,1012.68
5.168,0.15,0.90,-0.22,-2.83,0.02,2.09,-0.22,-0.05,-0.11,1012.68
5.17,0.15,0.90,-0.22,-2.83,0.02,2.09,0.08,-0.22,0.34,1012.68
5.171,0.15,0.90,-0.22,-0.77,0.20,1.31,0.08,-0.22,0.34,1012.68
5.2,0.15,0.90,-0.22,-0.77,0.20,1.31,0.08,-0.22,0.34,1012.69
5.201,0.06,0.92,-0.32,-0.77,0.20,1.31,0.08,-0.22,0.34,1012.69
5.202,0.06,0.92,-0.32,-0.77,0.20,1.31,0.30,0.17,0.51,1012.69
5.203,0.06,0.92,-0.32,-1.83,0.40,0.40,0.30,0.17,0.51,1012.69
5.237,0.24,1.03,-0.45,-1.83,0.40,0.40,0.30,0.17,0.51,1012.69
5.238,0.24,1.03,-0.45,-1.83,0.40,0.40,0.36,0.08,0.66,1012.69
5.239,0.24,1.03,-0.45,-0.30,1.57,-0.77,0.36,0.08,0.66,1012.69
5.239,0.24,1.03,-0.45,-0.30,1.57,-0.77,0.36,0.08,0.66,1012.69
5.28,0.40,0.99,-0.59,-0.30,1.57,-0.77,0.36,0.08,0.66,1012.69
5.282,0.40,0.99,-0.59,-0.30,1.57,-0.77,0.21,0.15,0.63,1012.69
5.284,0.40,0.99,-0.59,0.97,1.28,-2.03,0.21,0.15,0.63,1012.69
5.302,0.40,0.99,-0.59,0.97,1.28,-2.03,0.21,0.15,0.63,1012.68
5.318,0.59,1.17,-0.57,0.97,1.28,-2.03,0.21,0.15,0.63,1012.68
5.319,0.59,1.17,-0.57,0.97,1.28,-2.03,-0.10,0.14,0.38,1012.68
5.32,0.59,1.17,-0.57,2.68,3.07,-1.89,-0.10,0.14,0.38,1012.68
5.358,0.70,1.40,-0.35,2.68,3.07,-1.89,-0.10,0.14,0.38,1012.68
5.361,0.70,1.40,-0.35,2.68,3.07,-1.89,-0.33,0.40,-0.06,1012.68
5.363,0.70,1.40,-0.35,3.67,5.14,0.16,-0.33,0.40,-0.06,1012.68
5.365,0.70,1.40,-0.35,3.67,5.14,0.16,-0.33,0.40,-0.06,1012.68
5.399,0.36,1.74,-0.22,3.67,5.14,0.16,-0.33,0.40,-0.06,1012.68
5.403,0.36,1.74,-0.22,3.67,5.14,0.16,-0.47,0.85,-0.45,1012.68
5.405,0.36,1.74,-0.22,0.33,8.22,1.13,-0.47,0.85,-0.45,1012.68
5.438,0.36,1.74,-0.22,0.33,8.22,1.13,-0.47,0.85,-0.45,1012.67
5.442,-0.70,1.20,-0.09,0.33,8.22,1.13,-0.47,0.85,-0.45,1012.67
5.444,-0.70,1.20,-0.09,0.33,8.22,1.13,-0.41,1.65,-0.43,1012.67
5.446,-0.70,1.20,-0.09,-9.95,2.78,1.98,-0.41,1.65,-0.43,1012.67
5.477,-0.64,1.18,-0.52,-9.95,2.78,1.98,-0.41,1.65,-0.43,1012.67
5.48,-0.64,1.18,-0.52,-9.95,2.78,1.98,0.40,0.91,1.24,1012.67
5.482,-0.64,1.18,-0.52,-9.69,2.73,-2.16,0.40,0.91,1.24,1012.67
5.484,-0.64,1.18,-0.52,-9.69,2.73,-2.16,0.40,0.91,1.24,1012.67
5.515,1.66,1.32,-0.45,-9.69,2.73,-2.16,0.40,0.91,1.24,1012.67
5.517,1.66,1.32,-0.45,-9.69,2.73,-2.16,1.69,0.01,3.66,1012.67
5.518,1.66,1.32,-0.45,11.47,4.88,-0.88,1.69,0.01,3.66,1012.67
5.543,1.66,1.32,-0.45,11.47,4.88,-0.88,1.69,0.01,3.66,1012.67
5.556,0.83,1.27,-0.54,11.47,4.88,-0.88,1.69,0.01,3.66,1012.67
5.558,0.83,1.27,-0.54,2.19,5.17,-1.55,1.69,0.01,3.66,1012.67
5.56,0.83,1.27,-0.54,2.19,5.17,-1.55,2.72,2.83,2.23,1012.67
5.602,0.40,0.99,-0.25,2.19,5.17,-1.55,2.72,2.83,2.23,1012.67
5.605,0.40,0.99,-0.25,2.19,5.17,-1.55,2.47,3.74,2.00,1012.67
5.606,0.40,0.99,-0.25,-3.10,3.20,1.02,2.47,3.74,2.00,1012.67
5.607,0.40,0.99,-0.25,-3.10,3.20,1.02,2.47,3.74,2.00,1012.66
5.652,0.99,0.51,0.17,-3.10,3.20,1.02,2.47,3.74,2.00,1012.66
5.654,0.99,0.51,0.17,-3.10,3.20,1.02,2.38,3.25,2.06,1012.66
5.655,0.99,0.51,0.17,1.78,-0.60,4.68,2.38,3.25,2.06,1012.66
5.663,0.99,0.51,0.17,1.78,-0.60,4.68,2.38,3.25,2.06,1012.66
5.673,0.47,0.48,0.11,1.78,-0.60,4.68,2.38,3.25,2.06,1012.66
5.675,0.47,0.48,0.11,1.78,-0.60,4.68,2.72,3.34,0.97,1012.66
5.677,0.47,0.48,0.11,-3.83,-0.30,3.50,2.72,3.34,0.97,1012.66
5.712,-0.02,0.62,0.01,-3.83,-0.30,3.50,2.72,3.34,0.97,1012.66
5.714,-0.02,0.62,0.01,-3.83,-0.30,3.50,2.69,1.60,0.22,1012.66
5.715,-0.02,0.62,0.01,-8.66,1.42,2.38,2.69,1.60,0.22,1012.66
5.721,-0.02,0.62,0.01,-8.66,1.42,2.38,2.69,1.60,0.22,1012.66
5.753,0.33,0.53,0.11,-8.66,1.42,2.38,2.69,1.60,0.22,1012.66
5.756,0.33,0.53,0.11,-8.66,1.42,2.38,2.27,-1.13,-0.54,1012.66
5.758,0.33,0.53,0.11,-4.90,0.57,4.09,2.27,-1.13,-0.54,1012.66
5.799,0.33,0.53,0.11,-4.90,0.57,4.09,2.27,-1.13,-0.54,1012.66
5.801,0.76,0.39,0.11,-4.90,0.57,4.09,2.27,-1.13,-0.54,1012.66
5.802,0.76,0.39,0.11,-4.90,0.57,4.09,1.76,-0.92,-1.99,1012.66
5.803,0.76,0.39,0.11,-0.23,-1.14,4.69,1.76,-0.92,-1.99,1012.66
5.841,0.35,0.25,-0.02,-0.23,-1.14,4.69,1.76,-0.92,-1.99,1012.66
5.845,0.35,0.25,-0.02,-0.23,-1.14,4.69,1.46,0.89,-3.70,1012.66
5.845,0.35,0.25,-0.02,-3.48,-3.33,3.40,1.46,0.89,-3.70,1012.66
5.846,0.35,0.25,-0.02,-3.48,-3.33,3.40,1.46,0.89,-3.70,1012.63
5.871,0.16,0.20,-0.07,-3.48,-3.33,3.40,1.46,0.89,-3.70,1012.63
5.872,0.16,0.20,-0.07,-3.48,-3.33,3.40,1.24,0.95,-4.51,1012.63
5.874,0.16,0.20,-0.07,-4.33,-4.71,2.87,1.24,0.95,-4.51,1012.63
5.902,0.16,0.20,-0.07,-4.33,-4.71,2.87,1.24,0.95,-4.51,1012.63
5.94,0.16,0.20,-0.07,-0.27,-4.50,2.33,1.24,0.95,-4.51,1012.63
5.943,0.44,0.30,-0.15,-0.27,-4.50,2.33,1.24,0.95,-4.51,1012.63
5.945,0.44,0.30,-0.15,-0.27,-4.50,2.33,1.16,0.45,-4.71,1012.63
5.951,0.57,0.44,-0.16,-0.27,-4.50,2.33,1.16,0.45,-4.71,1012.63
5.954,0.57,0.44,-0.16,-0.27,-4.50,2.33,1.15,1.20,-4.67,1012.63
5.956,0.57,0.44,-0.16,2.18,-3.65,2.37,1.15,1.20,-4.67,1012.63
5.962,0.57,0.44,-0.16,2.18,-3.65,2.37,1.15,1.20,-4.67,1012.63
5.99,0.63,0.42,-0.15,2.18,-3.65,2.37,1.15,1.20,-4.67,1012.63
5.992,0.63,0.42,-0.15,2.18,-3.65,2.37,1.00,1.52,-3.88,1012.63
5.995,0.63,0.42,-0.15,3.71,-4.02,2.52,1.00,1.52,-3.88,1012.63
6.022,0.63,0.42,-0.15,3.71,-4.02,2.52,1.00,1.52,-3.88,1012.63
6.029,0.96,0.39,-0.04,3.71,-4.02,2.52,1.00,1.52,-3.88,1012.63
6.03,0.96,0.39,-0.04,3.71,-4.02,2.52,0.55,1.39,-2.47,1012.63
6.031,0.96,0.39,-0.04,7.38,-4.40,3.62,0.55,1.39,-2.47,1012.63
6.068,0.79,0.37,-0.24,7.38,-4.40,3.62,0.55,1.39,-2.47,1012.63
6.069,0.79,0.37,-0.24,7.38,-4.40,3.62,0.08,1.31,-0.97,1012.63
6.071,0.79,0.37,-0.24,5.74,-4.56,1.58,0.08,1.31,-0.97,1012.63
6.091,0.79,0.37,-0.24,5.74,-4.56,1.58,0.08,1.31,-0.97,1012.63
6.107,0.46,3.17,-1.32,5.74,-4.56,1.58,0.08,1.31,-0.97,1012.63
6.108,0.46,3.17,-1.32,5.74,-4.56,1.58,0.71,-0.85,0.74,1012.63
6.109,0.46,3.17,-1.32,2.36,22.70,-8.56,0.71,-0.85,0.74,1012.63
6.141,0.46,3.17,-1.32,2.36,22.70,-8.56,0.71,-0.85,0.74,1012.63
6.149,-0.39,-1.22,-0.09,2.36,22.70,-8.56,0.71,-0.85,0.74,1012.63
6.151,-0.39,-1.22,-0.09,2.36,22.70,-8.56,-0.36,0.06,0.67,1012.63
6.153,-0.39,-1.22,-0.09,-6.14,-20.00,3.33,-0.36,0.06,0.67,1012.63
6.198,1.56,1.62,-0.81,-6.14,-20.00,3.33,-0.36,0.06,0.67,1012.63
6.203,1.56,1.62,-0.81,-6.14,-20.00,3.33,0.93,-0.63,1.17,1012.63
6.206,1.56,1.62,-0.81,12.53,7.98,-3.33,0.93,-0.63,1.17,1012.63
6.209,1.56,1.62,-0.81,12.53,7.98,-3.33,0.93,-0.63,1.17,1012.64
6.238,-0.03,0.78,-0.49,12.53,7.98,-3.33,0.93,-0.63,1.17,1012.64
6.24,-0.03,0.78,-0.49,12.53,7.98,-3.33,0.21,0.19,-0.54,1012.64
6.242,-0.03,0.78,-0.49,-2.90,-0.28,-0.19,0.21,0.19,-0.54,1012.64
6.268,-0.03,0.78,-0.49,-2.90,-0.28,-0.19,0.21,0.19,-0.54,1012.64
6.27,0.74,0.96,-0.72,-2.90,-0.28,-0.19,0.21,0.19,-0.54,1012.64
6.27,0.74,0.96,-0.72,-2.90,-0.28,-0.19,0.18,0.12,-0.16,1012.64
6.271,0.74,0.96,-0.72,4.67,1.45,-2.38,0.18,0.12,-0.16,1012.64
6.305,0.08,0.81,-0.60,4.67,1.45,-2.38,0.18,0.12,-0.16,1012.64
6.306,0.08,0.81,-0.60,4.67,1.45,-2.38,-0.12,0.70,-0.87,1012.64
6.306,0.08,0.81,-0.60,-1.61,-0.09,-1.23,-0.12,0.70,-0.87,1012.64
6.321,0.08,0.81,-0.60,-1.61,-0.09,-1.23,-0.12,0.70,-0.87,1012.62
6.348,0.15,0.88,-0.58,-1.61,-0.09,-1.23,-0.12,0.70,-0.87,1012.62
6.351,0.15,0.88,-0.58,-1.61,-0.09,-1.23,-0.30,0.09,-0.70,1012.62
6.353,0.15,0.88,-0.58,-0.72,0.47,-1.15,-0.30,0.09,-0.70,1012.62
6.403,0.15,0.88,-0.58,-0.72,0.47,-1.15,-0.30,0.09,-0.70,1012.61
6.406,0.10,0.85,-0.52,-0.72,0.47,-1.15,-0.30,0.09,-0.70,1012.61
6.408,0.10,0.85,-0.52,-0.72,0.47,-1.15,-0.42,0.23,-0.68,1012.61
6.41,0.10,0.85,-0.52,-1.03,0.04,-0.72,-0.42,0.23,-0.68,1012.61
6.426,-0.18,0.86,-0.50,-1.03,0.04,-0.72,-0.42,0.23,-0.68,1012.61
6.428,-0.18,0.86,-0.50,-1.03,0.04,-0.72,-0.47,0.30,-0.59,1012.61
6.43,-0.18,0.86,-0.50,-3.55,-0.04,-0.69,-0.47,0.30,-0.59,1012.61
6.446,-0.18,0.86,-0.50,-3.55,-0.04,-0.69,-0.47,0.30,-0.59,1012.61
6.464,-0.18,0.86,-0.50,-1.30,0.27,0.67,-0.47,0.30,-0.59,1012.61
6.466,0.04,0.90,-0.35,-1.30,0.27,0.67,-0.47,0.30,-0.59,1012.61
6.467,0.04,0.90,-0.35,-1.30,0.27,0.67,-0.52,-0.24,-0.23,1012.61
6.5,0.04,0.90,-0.35,-1.30,0.27,0.67,-0.52,-0.24,-0.23,1012.63
6.502,0.07,0.90,-0.21,-1.30,0.27,0.67,-0.52,-0.24,-0.23,1012.63
6.504,0.07,0.90,-0.21,-1.30,0.27,0.67,-0.33,0.04,-0.09,1012.63
6.505,0.07,0.90,-0.21,-0.93,0.21,1.83,-0.33,0.04,-0.09,1012.63
6.543,0.02,0.92,-0.32,-0.93,0.21,1.83,-0.33,0.04,-0.09,1012.63
6.546,0.02,0.92,-0.32,-0.93,0.21,1.83,0.03,0.48,0.04,1012.63
6.548,0.02,0.92,-0.32,-1.48,0.41,0.73,0.03,0.48,0.04,1012.63
6.564,0.02,0.92,-0.32,-1.48,0.41,0.73,0.03,0.48,0.04,1012.64
6.584,0.02,0.92,-0.32,-1.69,0.22,0.06,0.03,0.48,0.04,1012.64
6.588,0.02,0.90,-0.39,-1.69,0.22,0.06,0.03,0.48,0.04,1012.64
6.589,0.02,0.90,-0.39,-1.69,0.22,0.06,0.20,0.67,0.22,1012.64
6.62,0.08,0.91,-0.36,-1.69,0.22,0.06,0.20,0.67,0.22,1012.64
6.622,0.08,0.91,-0.36,-1.69,0.22,0.06,0.31,0.72,0.39,1012.64
6.623,0.08,0.91,-0.36,-1.29,0.47,0.41,0.31,0.72,0.39,1012.64
6.624,0.08,0.91,-0.36,-1.29,0.47,0.41,0.31,0.72,0.39,1012.63
6.672,-0.00,0.96,-0.35,-1.29,0.47,0.41,0.31,0.72,0.39,1012.63
6.675,-0.00,0.96,-0.35,-1.29,0.47,0.41,0.43,0.67,0.52,1012.63
6.677,-0.00,0.96,-0.35,-2.36,1.05,0.58,0.43,0.67,0.52,1012.63
6.696,-0.00,0.96,-0.35,-2.36,1.05,0.58,0.43,0.67,0.52,1012.64
6.7,0.19,0.93,-0.46,-2.36,1.05,0.58,0.43,0.67,0.52,1012.64
6.701,0.19,0.93,-0.46,-2.36,1.05,0.58,0.56,0.65,0.75,1012.64
6.702,0.19,0.93,-0.46,-0.82,0.90,-0.42,0.56,0.65,0.75,1012.64
6.74,0.37,0.93,-0.68,-0.82,0.90,-0.42,0.56,0.65,0.75,1012.64
6.742,0.37,0.93,-0.68,-0.82,0.90,-0.42,0.63,0.94,0.76,1012.64
6.744,0.37,0.93,-0.68,0.58,1.00,-2.43,0.63,0.94,0.76,1012.64
6.746,0.37,0.93,-0.68,0.58,1.00,-2.43,0.63,0.94,0.76,1012.64
6.782,0.45,1.16,-0.64,0.58,1.00,-2.43,0.63,0.94,0.76,1012.64
6.786,0.45,1.16,-0.64,0.58,1.00,-2.43,0.69,1.53,0.35,1012.64
6.788,0.45,1.16,-0.64,0.97,3.44,-1.92,0.69,1.53,0.35,1012.64
6.826,0.45,1.16,-0.64,0.97,3.44,-1.92,0.69,1.53,0.35,1012.63
6.83,0.50,1.31,-0.37,0.97,3.44,-1.92,0.69,1.53,0.35,1012.63
6.832,0.50,1.31,-0.37,0.97,3.44,-1.92,0.24,1.47,0.17,1012.63
6.836,0.50,1.31,-0.37,1.13,4.88,0.58,0.24,1.47,0.17,1012.63
6.859,0.43,1.50,-0.47,1.13,4.88,0.58,0.24,1.47,0.17,1012.63
6.861,0.43,1.50,-0.47,1.13,4.88,0.58,-0.09,0.81,0.04,1012.63
6.863,0.43,1.50,-0.47,1.13,4.88,0.58,-0.09,0.81,0.04,1012.63
6.864,0.43,1.50,-0.47,0.27,6.61,-0.55,-0.09,0.81,0.04,1012.63
6.898,0.07,1.23,-0.36,0.27,6.61,-0.55,-0.09,0.81,0.04,1012.63
6.9,0.07,1.23,-0.36,0.27,6.61,-0.55,0.03,2.19,-0.38,1012.63
6.901,0.07,1.23,-0.36,-3.35,3.82,0.16,0.03,2.19,-0.38,1012.63
6.922,0.07,1.23,-0.36,-3.35,3.82,0.16,0.03,2.19,-0.38,1012.64
6.937,-0.14,0.98,-0.48,-3.35,3.82,0.16,0.03,2.19,-0.38,1012.64
6.939,-0.14,0.98,-0.48,-3.35,3.82,0.16,0.68,3.29,-0.08,1012.64
6.94,-0.14,0.98,-0.48,-5.77,1.45,-1.31,0.68,3.29,-0.08,1012.64
6.986,0.89,1.04,-0.47,-5.77,1.45,-1.31,0.68,3.29,-0.08,1012.64
6.987,0.89,1.04,-0.47,-5.77,1.45,-1.31,1.94,2.95,1.18,1012.64
6.988,0.89,1.04,-0.47,-5.77,1.45,-1.31,1.94,2.95,1.18,1012.64
6.988,0.89,1.04,-0.47,3.44,2.47,-1.18,1.94,2.95,1.18,1012.64
7.017,0.60,1.10,-0.70,3.44,2.47,-1.18,1.94,2.95,1.18,1012.64
7.018,0.60,1.10,-0.70,3.44,2.47,-1.18,2.88,3.58,0.53,1012.64
7.019,0.60,1.10,-0.70,-0.04,3.49,-3.32,2.88,3.58,0.53,1012.64
7.039,0.60,1.10,-0.70,-0.04,3.49,-3.32,2.88,3.58,0.53,1012.64
7.057,0.20,0.82,-0.46,-0.04,3.49,-3.32,2.88,3.58,0.53,1012.64
7.06,0.20,0.82,-0.46,-0.04,3.49,-3.32,2.52,3.35,0.32,1012.64
7.062,0.20,0.82,-0.46,-4.40,1.12,-1.05,2.52,3.35,0.32,1012.64
7.116,0.72,0.58,-0.05,-4.40,1.12,-1.05,2.52,3.35,0.32,1012.64
7.118,0.72,0.58,-0.05,-4.40,1.12,-1.05,2.37,2.62,0.27,1012.64
7.118,0.72,0.58,-0.05,0.24,-0.77,2.86,2.37,2.62,0.27,1012.64
7.119,0.72,0.58,-0.05,0.24,-0.77,2.86,2.37,2.62,0.27,1012.62
7.152,0.72,0.58,-0.05,-2.94,-1.35,4.44,2.37,2.62,0.27,1012.62
7.154,0.41,0.51,0.15,-2.94,-1.35,4.44,2.37,2.62,0.27,1012.62
7.156,0.41,0.51,0.15,-2.94,-1.35,4.44,2.15,2.99,-0.59,1012.62
7.159,0.41,0.51,0.15,-2.94,-1.35,4.44,2.15,2.99,-0.59,1012.61
7.174,-0.06,0.36,0.32,-2.94,-1.35,4.44,2.15,2.99,-0.59,1012.61
7.176,-0.06,0.36,0.32,-2.94,-1.35,4.44,1.58,2.04,-1.22,1012.61
7.178,-0.06,0.36,0.32,-7.32,-2.86,5.90,1.58,2.04,-1.22,1012.61
7.215,0.16,0.33,0.26,-7.32,-2.86,5.90,1.58,2.04,-1.22,1012.61
7.217,0.16,0.33,0.26,-7.32,-2.86,5.90,0.81,0.09,-1.79,1012.61
7.218,0.16,0.33,0.26,-4.67,-3.53,5.41,0.81,0.09,-1.79,1012.61
7.219,0.16,0.33,0.26,-4.67,-3.53,5.41,0.81,0.09,-1.79,1012.59
7.254,0.42,0.37,0.16,-4.67,-3.53,5.41,0.81,0.09,-1.79,1012.59
7.257,0.42,0.37,0.16,-4.67,-3.53,5.41,-0.19,-0.68,-2.78,1012.59
7.26,0.42,0.37,0.16,-1.24,-3.76,4.44,-0.19,-0.68,-2.78,1012.59
7.28,0.42,0.37,0.16,-1.24,-3.76,4.44,-0.19,-0.68,-2.78,1012.59
7.317,0.55,0.47,-0.10,-1.24,-3.76,4.44,-0.19,-0.68,-2.78,1012.59
7.319,0.55,0.47,-0.10,-1.24,-3.76,4.44,-1.10,-0.52,-3.44,1012.59
7.319,0.55,0.47,-0.10,1.16,-3.42,1.63,-1.10,-0.52,-3.44,1012.59
7.354,0.66,0.60,-0.49,1.16,-3.42,1.63,-1.10,-0.52,-3.44,1012.59
7.355,0.66,0.60,-0.49,1.16,-3.42,1.63,-1.65,-1.06,-3.19,1012.59
7.356,0.66,0.60,-0.49,3.31,-2.74,-2.53,-1.65,-1.06,-3.19,1012.59
7.357,0.66,0.60,-0.49,3.31,-2.74,-2.53,-1.65,-1.06,-3.19,1012.58
7.372,1.07,0.79,-0.71,3.31,-2.74,-2.53,-1.65,-1.06,-3.19,1012.58
7.375,1.07,0.79,-0.71,3.31,-2.74,-2.53,-1.62,-0.92,-1.91,1012.58
7.376,1.07,0.79,-0.71,7.91,-1.18,-5.06,-1.62,-0.92,-1.91,1012.58
7.412,1.07,0.79,-0.71,7.91,-1.18,-5.06,-1.62,-0.92,-1.91,1012.59
7.421,0.55,0.20,-0.56,7.91,-1.18,-5.06,-1.62,-0.92,-1.91,1012.59
7.422,0.55,0.20,-0.56,7.91,-1.18,-5.06,-1.10,-0.17,-1.03,1012.59
7.423,0.55,0.20,-0.56,3.13,-7.06,-3.97,-1.10,-0.17,-1.03,1012.59
7.451,0.82,1.10,0.08,3.13,-7.06,-3.97,-1.10,-0.17,-1.03,1012.59
7.452,0.82,1.10,0.08,3.13,-7.06,-3.97,-0.29,-0.21,-0.12,1012.59
7.452,0.82,1.10,0.08,5.73,1.70,2.24,-0.29,-0.21,-0.12,1012.59
7.458,0.82,1.10,0.08,5.73,1.70,2.24,-0.29,-0.21,-0.12,1012.60
7.492,-0.17,2.42,0.02,5.73,1.70,2.24,-0.29,-0.21,-0.12,1012.60
7.495,-0.17,2.42,0.02,5.73,1.70,2.24,-0.06,1.26,-0.49,1012.60
7.497,-0.17,2.42,0.02,-3.77,14.38,1.45,-0.06,1.26,-0.49,1012.60
7.519,-0.17,2.42,0.02,-3.77,14.38,1.45,-0.06,1.26,-0.49,1012.61
7.547,-0.70,0.49,-0.39,-3.77,14.38,1.45,-0.06,1.26,-0.49,1012.61
7.549,-0.70,0.49,-0.39,-3.77,14.38,1.45,-0.47,-0.57,0.07,1012.61
7.55,-0.70,0.49,-0.39,-8.81,-4.54,-2.62,-0.47,-0.57,0.07,1012.61
7.569,1.53,0.56,-0.05,-8.81,-4.54,-2.62,-0.47,-0.57,0.07,1012.61
7.572,1.53,0.56,-0.05,-8.81,-4.54,-2.62,-0.38,-0.76,1.23,1012.61
7.573,1.53,0.56,-0.05,12.41,-3.66,0.67,-0.38,-0.76,1.23,1012.61
7.58,1.53,0.56,-0.05,12.41,-3.66,0.67,-0.38,-0.76,1.23,1012.61
7.61,-0.33,1.40,-0.31,12.41,-3.66,0.67,-0.38,-0.76,1.23,1012.61
7.613,-0.33,1.40,-0.31,12.41,-3.66,0.67,-0.16,1.18,-0.58,1012.61
7.616,-0.33,1.40,-0.31,-5.53,4.42,-2.03,-0.16,1.18,-0.58,1012.61
7.644,-0.33,1.40,-0.31,-5.53,4.42,-2.03,-0.16,1.18,-0.58,1012.60
7.649,-0.18,0.98,-0.10,-5.53,4.42,-2.03,-0.16,1.18,-0.58,1012.60
7.649,-0.18,0.98,-0.10,-5.53,4.42,-2.03,-0.60,-0.28,0.20,1012.60
7.65,-0.18,0.98,-0.10,-4.12,0.26,-0.21,-0.60,-0.28,0.20,1012.60
7.688,0.70,0.84,-0.03,-4.12,0.26,-0.21,-0.60,-0.28,0.20,1012.60
7.69,0.70,0.84,-0.03,-4.12,0.26,-0.21,-0.56,-0.80,0.63,1012.60
7.69,0.70,0.84,-0.03,4.27,-0.97,0.34,-0.56,-0.80,0.63,1012.60
7.715,0.70,0.84,-0.03,4.27,-0.97,0.34,-0.56,-0.80,0.63,1012.59
7.727,0.16,0.95,-0.10,4.27,-0.97,0.34,-0.56,-0.80,0.63,1012.59
7.728,0.16,0.95,-0.10,-1.09,0.12,-0.45,-0.56,-0.80,0.63,1012.59
7.751,0.16,0.95,-0.10,-1.09,0.12,-0.45,-0.32,0.50,0.06,1012.59
7.758,0.16,0.95,-0.10,-1.09,0.12,-0.45,-0.32,0.50,0.06,1012.59
7.768,-0.02,1.03,-0.05,-1.09,0.12,-0.45,-0.32,0.50,0.06,1012.59
7.77,-0.02,1.03,-0.05,-1.09,0.12,-0.45,-0.34,0.25,0.21,1012.59
7.77,-0.02,1.03,-0.05,-2.84,0.83,-0.20,-0.34,0.25,0.21,1012.59
7.816,0.35,0.92,0.04,-2.84,0.83,-0.20,-0.34,0.25,0.21,1012.59
7.82,0.35,0.92,0.04,-2.84,0.83,-0.20,-0.36,-0.37,0.48,1012.59
7.821,0.35,0.92,0.04,0.63,-0.20,0.62,-0.36,-0.37,0.48,1012.59
7.821,0.35,0.92,0.04,0.63,-0.20,0.62,-0.36,-0.37,0.48,1012.60
7.853,0.40,0.94,0.03,0.63,-0.20,0.62,-0.36,-0.37,0.48,1012.60
7.856,0.40,0.94,0.03,0.63,-0.20,0.62,-0.17,0.16,0.34,1012.60
7.858,0.40,0.94,0.03,0.91,0.08,0.48,-0.17,0.16,0.34,1012.60
7.879,0.40,0.94,0.03,0.91,0.08,0.48,-0.17,0.16,0.34,1012.59
7.886,0.31,0.93,0.00,0.91,0.08,0.48,-0.17,0.16,0.34,1012.59
7.887,0.31,0.93,0.00,0.91,0.08,0.48,-0.06,0.27,0.18,1012.59
7.888,0.31,0.93,0.00,0.02,0.02,0.11,-0.06,0.27,0.18,1012.59
7.934,0.38,0.94,0.02,0.02,0.02,0.11,-0.06,0.27,0.18,1012.59
7.936,0.38,0.94,0.02,0.02,0.02,0.11,0.00,0.22,0.13,1012.59
7.936,0.38,0.94,0.02,0.65,0.14,0.30,0.00,0.22,0.13,1012.59
7.94,0.38,0.94,0.02,0.65,0.14,0.30,0.00,0.22,0.13,1012.59
7.976,0.33,0.94,-0.02,0.65,0.14,0.30,0.00,0.22,0.13,1012.59
7.978,0.33,0.94,-0.02,0.65,0.14,0.30,0.09,0.43,0.02,1012.59
7.979,0.33,0.94,-0.02,0.10,0.08,-0.17,0.09,0.43,0.02,1012.59
7.997,0.33,0.94,-0.02,0.10,0.08,-0.17,0.09,0.43,0.02,1012.58
8.003,0.26,0.95,-0.07,0.10,0.08,-0.17,0.09,0.43,0.02,1012.58
8.004,0.26,0.95,-0.07,0.10,0.08,-0.17,0.07,0.34,-0.03,1012.58
8.004,0.26,0.95,-0.07,-0.59,0.21,-0.64,0.07,0.34,-0.03,1012.58
8.044,0.28,0.94,-0.03,-0.59,0.21,-0.64,0.07,0.34,-0.03,1012.58
8.047,0.28,0.94,-0.03,-0.59,0.21,-0.64,0.02,0.17,0.00,1012.58
8.049,0.28,0.94,-0.03,-0.35,0.12,-0.28,0.02,0.17,0.00,1012.58
8.059,0.28,0.94,-0.03,-0.35,0.12,-0.28,0.02,0.17,0.00,1012.58
8.086,0.29,0.95,-0.02,-0.35,0.12,-0.28,0.02,0.17,0.00,1012.58
8.089,0.29,0.95,-0.02,-0.35,0.12,-0.28,0.02,0.17,0.01,1012.58
8.091,0.29,0.95,-0.02,-0.29,0.21,-0.20,0.02,0.17,0.01,1012.58
8.136,0.29,0.95,-0.02,-0.29,0.21,-0.20,0.02,0.17,0.01,1012.58
8.137,0.28,0.95,-0.01,-0.29,0.21,-0.20,0.02,0.17,0.01,1012.58
8.138,0.28,0.95,-0.01,-0.29,0.21,-0.20,0.02,0.14,0.01,1012.58
8.139,0.28,0.95,-0.01,-0.29,0.19,-0.10,0.02,0.14,0.01,1012.58
8.162,0.27,0.95,-0.04,-0.29,0.19,-0.10,0.02,0.14,0.01,1012.58
8.165,0.27,0.95,-0.04,-0.29,0.19,-0.10,0.03,0.12,0.01,1012.58
8.166,0.27,0.95,-0.04,-0.48,0.18,-0.33,0.03,0.12,0.01,1012.58
8.179,0.27,0.95,-0.04,-0.48,0.18,-0.33,0.03,0.12,0.01,1012.59
8.202,0.30,0.95,-0.03,-0.48,0.18,-0.33,0.03,0.12,0.01,1012.59
8.203,0.30,0.95,-0.03,-0.48,0.18,-0.33,0.02,0.04,0.03,1012.59
8.204,0.30,0.95,-0.03,-0.17,0.20,-0.30,0.02,0.04,0.03,1012.59
8.238,0.30,0.95,-0.03,-0.17,0.20,-0.30,0.02,0.04,0.03,1012.61
8.241,0.28,0.95,-0.03,-0.17,0.20,-0.30,0.02,0.04,0.03,1012.61
8.243,0.28,0.95,-0.03,-0.17,0.20,-0.30,-0.01,0.01,0.03,1012.61
8.245,0.28,0.95,-0.03,-0.37,0.17,-0.32,-0.01,0.01,0.03,1012.61
8.282,0.30,0.94,-0.02,-0.37,0.17,-0.32,-0.01,0.01,0.03,1012.61
8.285,0.30,0.94,-0.02,-0.37,0.17,-0.32,-0.02,-0.09,0.03,1012.61
8.287,0.30,0.94,-0.02,-0.12,0.10,-0.20,-0.02,-0.09,0.03,1012.61
8.3,0.30,0.94,-0.02,-0.12,0.10,-0.20,-0.02,-0.09,0.03,1012.64
8.321,0.30,0.94,-0.03,-0.12,0.10,-0.20,-0.02,-0.09,0.03,1012.64
8.324,0.30,0.94,-0.03,-0.12,0.10,-0.20,-0.02,-0.12,-0.00,1012.64
8.326,0.30,0.94,-0.03,-0.11,0.07,-0.28,-0.02,-0.12,-0.00,1012.64
8.358,0.30,0.94,-0.03,-0.11,0.07,-0.28,-0.02,-0.12,-0.00,1012.64
8.36,0.30,0.96,-0.05,-0.11,0.07,-0.28,-0.02,-0.12,-0.00,1012.64
8.361,0.30,0.96,-0.05,-0.11,0.07,-0.28,-0.04,-0.14,-0.01,1012.64
8.362,0.30,0.96,-0.05,-0.13,0.29,-0.40,-0.04,-0.14,-0.01,1012.64
8.416,0.30,0.96,-0.05,-0.27,0.09,-0.34,-0.04,-0.14,-0.01,1012.64
8.419,0.29,0.94,-0.04,-0.27,0.09,-0.34,-0.04,-0.14,-0.01,1012.64
8.421,0.29,0.94,-0.04,-0.27,0.09,-0.34,-0.07,-0.13,-0.01,1012.64
8.423,0.29,0.94,-0.04,-0.27,0.09,-0.34,-0.07,-0.13,-0.01,1012.63
8.462,0.28,0.94,-0.01,-0.27,0.09,-0.34,-0.07,-0.13,-0.01,1012.63
8.464,0.28,0.94,-0.01,-0.27,0.09,-0.34,-0.07,-0.12,-0.01,1012.63
8.464,0.28,0.94,-0.01,-0.38,0.10,-0.09,-0.07,-0.12,-0.01,1012.63
8.478,0.28,0.96,-0.01,-0.38,0.10,-0.09,-0.07,-0.12,-0.01,1012.63
8.479,0.28,0.96,-0.01,-0.38,0.10,-0.09,-0.05,-0.13,-0.00,1012.63
8.481,0.28,0.96,-0.01,-0.38,0.10,-0.09,-0.05,-0.13,-0.00,1012.61
8.481,0.28,0.96,-0.01,-0.31,0.28,-0.03,-0.05,-0.13,-0.00,1012.61
8.519,0.26,0.95,-0.04,-0.31,0.28,-0.03,-0.05,-0.13,-0.00,1012.61
8.52,0.26,0.95,-0.04,-0.31,0.28,-0.03,-0.03,-0.08,0.02,1012.61
8.521,0.26,0.95,-0.04,-0.51,0.17,-0.39,-0.03,-0.08,0.02,1012.61
8.553,0.26,0.95,-0.04,-0.51,0.17,-0.39,-0.03,-0.08,0.02,1012.61
8.559,0.29,0.94,-0.03,-0.51,0.17,-0.39,-0.03,-0.08,0.02,1012.61
8.562,0.29,0.94,-0.03,-0.51,0.17,-0.39,-0.05,-0.11,0.05,1012.61
8.563,0.29,0.94,-0.03,-0.22,0.08,-0.29,-0.05,-0.11,0.05,1012.61
8.605,0.30,0.97,-0.03,-0.22,0.08,-0.29,-0.05,-0.11,0.05,1012.61
8.607,0.30,0.97,-0.03,-0.22,0.08,-0.29,-0.06,-0.07,0.05,1012.61
8.607,0.30,0.97,-0.03,-0.19,0.39,-0.22,-0.06,-0.07,0.05,1012.61
8.608,0.30,0.97,-0.03,-0.19,0.39,-0.22,-0.06,-0.07,0.05,1012.61
8.635,0.30,0.96,-0.02,-0.19,0.39,-0.22,-0.06,-0.07,0.05,1012.61
8.636,0.30,0.96,-0.02,-0.19,0.39,-0.22,-0.07,-0.07,0.06,1012.61
8.637,0.30,0.96,-0.02,-0.12,0.24,-0.22,-0.07,-0.07,0.06,1012.61
8.656,0.30,0.96,-0.02,-0.12,0.24,-0.22,-0.07,-0.07,0.06,1012.60
8.675,0.33,0.92,0.00,-0.12,0.24,-0.22,-0.07,-0.07,0.06,1012.60
8.676,0.33,0.92,0.00,-0.12,0.24,-0.22,-0.06,-0.10,0.04,1012.60
8.677,0.33,0.92,0.00,0.10,-0.09,0.02,-0.06,-0.10,0.04,1012.60
8.716,0.29,0.94,-0.00,0.10,-0.09,0.02,-0.06,-0.10,0.04,1012.60
8.718,0.29,0.94,-0.00,0.10,-0.09,0.02,-0.02,-0.07,-0.01,1012.60
8.718,0.29,0.94,-0.00,0.10,-0.09,0.02,-0.02,-0.07,-0.01,1012.59
8.719,0.29,0.94,-0.00,-0.30,0.11,0.01,-0.02,-0.07,-0.01,1012.59
8.754,0.27,0.95,-0.02,-0.30,0.11,0.01,-0.02,-0.07,-0.01,1012.59
8.755,0.27,0.95,-0.02,-0.30,0.11,0.01,-0.01,-0.09,0.02,1012.59
8.755,0.27,0.95,-0.02,-0.50,0.21,-0.14,-0.01,-0.09,0.02,1012.59
8.776,0.27,0.95,-0.02,-0.50,0.21,-0.14,-0.01,-0.09,0.02,1012.60
8.793,0.28,0.95,-0.02,-0.50,0.21,-0.14,-0.01,-0.09,0.02,1012.60
8.794,0.28,0.95,-0.02,-0.50,0.21,-0.14,-0.01,-0.16,0.06,1012.60
8.798,0.28,0.95,-0.02,-0.37,0.15,-0.19,-0.01,-0.16,0.06,1012.60
