time,gFx,gFy,gFz,ax,ay,az,wx,wy,wz,P
0.008,-0.18,0.99,0.06,-0.32,-0.02,0.08,-0.04,0.16,-0.03,1012.80
0.009,-0.18,0.99,0.06,-0.32,-0.02,0.08,-0.01,0.00,0.02,1012.80
0.009,-0.18,0.99,0.06,0.12,0.04,-0.04,-0.01,0.00,0.02,1012.80
0.022,-0.18,0.99,0.06,0.12,0.04,-0.04,-0.01,0.00,0.02,1012.80
0.045,-0.22,0.98,0.07,0.12,0.04,-0.04,-0.01,0.00,0.02,1012.80
0.046,-0.22,0.98,0.07,0.12,0.04,-0.04,-0.02,0.02,0.02,1012.80
0.046,-0.22,0.98,0.07,-0.24,-0.06,0.01,-0.02,0.02,0.02,1012.80
0.081,-0.22,0.98,0.07,-0.24,-0.06,0.01,-0.02,0.02,0.02,1012.79
0.084,-0.17,0.99,0.06,-0.24,-0.06,0.01,-0.02,0.02,0.02,1012.79
0.085,-0.17,0.99,0.06,-0.24,-0.06,0.01,-0.03,0.01,0.03,1012.79
0.086,-0.17,0.99,0.06,0.23,0.09,-0.03,-0.03,0.01,0.03,1012.79
0.131,-0.18,0.99,0.06,0.23,0.09,-0.03,-0.03,0.01,0.03,1012.79
0.132,-0.18,0.99,0.06,0.23,0.09,-0.03,-0.04,0.09,-0.01,1012.79
0.133,-0.18,0.99,0.06,0.11,0.05,-0.04,-0.04,0.09,-0.01,1012.79
0.142,-0.18,0.99,0.06,0.11,0.05,-0.04,-0.04,0.09,-0.01,1012.78
0.164,-0.21,0.98,0.07,0.11,0.05,-0.04,-0.04,0.09,-0.01,1012.78
0.165,-0.21,0.98,0.07,0.11,0.05,-0.04,-0.05,0.13,-0.01,1012.78
0.166,-0.21,0.98,0.07,-0.13,-0.07,-0.00,-0.05,0.13,-0.01,1012.78
0.202,-0.21,0.98,0.07,-0.13,-0.07,-0.00,-0.05,0.13,-0.01,1012.80
0.204,-0.23,0.97,0.10,-0.13,-0.07,-0.00,-0.05,0.13,-0.01,1012.80
0.204,-0.23,0.97,0.10,-0.13,-0.07,-0.00,-0.04,0.10,0.00,1012.80
0.207,-0.23,0.97,0.10,-0.34,-0.16,0.32,-0.04,0.10,0.00,1012.80
0.253,-0.28,0.96,0.15,-0.34,-0.16,0.32,-0.04,0.10,0.00,1012.80
0.255,-0.28,0.96,0.15,-0.34,-0.16,0.32,0.02,0.02,0.04,1012.80
0.255,-0.28,0.96,0.15,-0.87,-0.25,0.80,0.02,0.02,0.04,1012.80
0.281,-0.28,0.96,0.15,-0.87,-0.25,0.80,0.02,0.02,0.04,1012.81
0.286,-0.30,0.94,0.15,-0.87,-0.25,0.80,0.02,0.02,0.04,1012.81
0.287,-0.30,0.94,0.15,-0.87,-0.25,0.80,0.17,-0.24,0.16,1012.81
0.287,-0.30,0.94,0.15,-1.10,-0.43,0.82,0.17,-0.24,0.16,1012.81
0.33,-0.10,1.04,-0.01,-1.10,-0.43,0.82,0.17,-0.24,0.16,1012.81
0.331,-0.10,1.04,-0.01,-1.10,-0.43,0.82,0.21,-0.26,0.29,1012.81
0.331,-0.10,1.04,-0.01,-1.10,-0.43,0.82,0.21,-0.26,0.29,1012.81
0.331,-0.10,1.04,-0.01,0.78,0.54,-0.66,0.21,-0.26,0.29,1012.81
0.362,-0.14,1.02,-0.04,0.78,0.54,-0.66,0.21,-0.26,0.29,1012.81
0.362,-0.14,1.02,-0.04,0.78,0.54,-0.66,0.09,0.01,0.29,1012.81
0.363,-0.14,1.02,-0.04,0.29,0.26,-0.95,0.09,0.01,0.29,1012.81
0.381,-0.14,1.02,-0.04,0.29,0.26,-0.95,0.09,0.01,0.29,1012.80
0.403,-0.15,0.94,0.10,0.29,0.26,-0.95,0.09,0.01,0.29,1012.80
0.406,-0.15,0.94,0.10,0.29,0.26,-0.95,-0.01,0.14,0.31,1012.80
0.408,-0.15,0.94,0.10,0.06,-0.51,0.44,-0.01,0.14,0.31,1012.80
0.447,-0.14,0.98,0.15,0.06,-0.51,0.44,-0.01,0.14,0.31,1012.80
0.449,-0.14,0.98,0.15,0.06,-0.51,0.44,0.04,0.45,0.23,1012.80
0.449,-0.14,0.98,0.15,0.03,-0.12,0.97,0.04,0.45,0.23,1012.80
0.45,-0.14,0.98,0.15,0.03,-0.12,0.97,0.04,0.45,0.23,1012.81
0.482,-0.27,0.97,0.09,0.03,-0.12,0.97,0.04,0.45,0.23,1012.81
0.486,-0.27,0.97,0.09,0.03,-0.12,0.97,0.17,0.57,0.22,1012.81
0.488,-0.27,0.97,0.09,-1.26,-0.26,0.49,0.17,0.57,0.22,1012.81
0.502,-0.27,0.97,0.09,-1.26,-0.26,0.49,0.17,0.57,0.22,1012.82
0.529,-0.17,1.00,0.06,-1.26,-0.26,0.49,0.17,0.57,0.22,1012.82
0.531,-0.17,1.00,0.06,-1.26,-0.26,0.49,0.25,0.17,0.36,1012.82
0.531,-0.17,1.00,0.06,-0.41,0.06,0.24,0.25,0.17,0.36,1012.82
0.573,-0.06,1.01,0.01,-0.41,0.06,0.24,0.25,0.17,0.36,1012.82
0.577,-0.06,1.01,0.01,0.53,0.12,-0.06,0.25,0.17,0.36,1012.82
0.58,-0.06,1.01,0.01,0.53,0.12,-0.06,0.29,0.06,0.40,1012.82
0.581,-0.06,1.01,0.01,0.53,0.12,-0.06,0.29,0.06,0.40,1012.82
0.6,-0.10,1.07,0.03,0.53,0.12,-0.06,0.29,0.06,0.40,1012.82
0.601,-0.10,1.07,0.03,0.53,0.12,-0.06,0.27,0.04,0.32,1012.82
0.601,-0.10,1.07,0.03,0.00,0.70,0.20,0.27,0.04,0.32,1012.82
0.633,-0.10,1.07,0.03,0.00,0.70,0.20,0.27,0.04,0.32,1012.80
0.64,0.09,1.23,0.06,0.00,0.70,0.20,0.27,0.04,0.32,1012.80
0.644,0.09,1.23,0.06,0.00,0.70,0.20,0.28,-0.33,0.26,1012.80
0.647,0.09,1.23,0.06,1.73,2.13,0.56,0.28,-0.33,0.26,1012.80
0.679,0.15,1.48,-0.12,1.73,2.13,0.56,0.28,-0.33,0.26,1012.80
0.682,0.15,1.48,-0.12,1.73,2.13,0.56,0.32,-0.64,0.02,1012.80
0.684,0.15,1.48,-0.12,2.29,4.58,-1.07,0.32,-0.64,0.02,1012.80
0.686,0.15,1.48,-0.12,2.29,4.58,-1.07,0.32,-0.64,0.02,1012.79
0.718,0.98,1.85,0.21,2.29,4.58,-1.07,0.32,-0.64,0.02,1012.79
0.722,0.98,1.85,0.21,2.29,4.58,-1.07,0.27,-1.47,-0.64,1012.79
0.725,0.98,1.85,0.21,10.51,8.07,2.20,0.27,-1.47,-0.64,1012.79
0.741,0.98,1.85,0.21,10.51,8.07,2.20,0.27,-1.47,-0.64,1012.79
0.789,0.19,1.86,-0.04,10.51,8.07,2.20,0.27,-1.47,-0.64,1012.79
0.793,0.19,1.86,-0.04,10.51,8.07,2.20,0.81,-0.27,-2.34,1012.79
0.794,0.19,1.86,-0.04,3.62,8.15,0.03,0.81,-0.27,-2.34,1012.79
0.798,-0.31,1.54,-0.07,3.62,8.15,0.03,0.81,-0.27,-2.34,1012.79
0.8,-0.31,1.54,-0.07,3.62,8.15,0.03,0.93,-0.29,-3.19,1012.79
0.801,-0.31,1.54,-0.07,-0.09,5.22,0.06,0.93,-0.29,-3.19,1012.79
0.803,-0.31,1.54,-0.07,-0.09,5.22,0.06,0.93,-0.29,-3.19,1012.79
0.838,0.18,0.89,0.10,-0.09,5.22,0.06,0.93,-0.29,-3.19,1012.79
0.841,0.18,0.89,0.10,-0.09,5.22,0.06,0.46,-0.40,-2.46,1012.79
0.843,0.18,0.89,0.10,5.60,-0.73,1.85,0.46,-0.40,-2.46,1012.79
0.86,0.18,0.89,0.10,5.60,-0.73,1.85,0.46,-0.40,-2.46,1012.80
0.875,-0.01,0.53,0.06,5.60,-0.73,1.85,0.46,-0.40,-2.46,1012.80
0.877,-0.01,0.53,0.06,5.60,-0.73,1.85,0.37,0.43,-1.11,1012.80
0.878,-0.01,0.53,0.06,4.04,-4.05,1.65,0.37,0.43,-1.11,1012.80
0.916,0.05,0.31,0.08,4.04,-4.05,1.65,0.37,0.43,-1.11,1012.80
0.919,0.05,0.31,0.08,4.04,-4.05,1.65,0.26,0.20,0.58,1012.80
0.921,0.05,0.31,0.08,4.33,-6.14,1.96,0.26,0.20,0.58,1012.80
0.923,0.05,0.31,0.08,4.33,-6.14,1.96,0.26,0.20,0.58,1012.81
0.97,0.03,0.29,-0.01,4.33,-6.14,1.96,0.26,0.20,0.58,1012.81
0.972,0.03,0.29,-0.01,4.33,-6.14,1.96,0.12,0.52,1.86,1012.81
0.973,0.03,0.29,-0.01,3.40,-6.49,1.18,0.12,0.52,1.86,1012.81
0.982,0.03,0.29,-0.01,3.40,-6.49,1.18,0.12,0.52,1.86,1012.80
0.999,-0.15,0.34,-0.13,3.40,-6.49,1.18,0.12,0.52,1.86,1012.80
1.0,-0.15,0.34,-0.13,3.40,-6.49,1.18,-0.09,1.44,2.40,1012.80
1.001,-0.15,0.34,-0.13,0.67,-6.15,0.08,-0.09,1.44,2.40,1012.80
1.033,-0.56,0.43,-0.45,0.67,-6.15,0.08,-0.09,1.44,2.40,1012.80
1.035,-0.56,0.43,-0.45,0.67,-6.15,0.08,-0.29,2.41,1.97,1012.80
1.036,-0.56,0.43,-0.45,-4.19,-5.36,-2.94,-0.29,2.41,1.97,1012.80
1.052,-0.56,0.43,-0.45,-4.19,-5.36,-2.94,-0.29,2.41,1.97,1012.78
1.073,-0.92,0.31,-0.66,-4.19,-5.36,-2.94,-0.29,2.41,1.97,1012.78
1.074,-0.92,0.31,-0.66,-4.19,-5.36,-2.94,-0.17,2.28,0.72,1012.78
1.074,-0.92,0.31,-0.66,-7.94,-6.45,-4.89,-0.17,2.28,0.72,1012.78
1.101,-0.92,0.31,-0.66,-7.94,-6.45,-4.89,-0.17,2.28,0.72,1012.77
1.113,-1.38,0.88,-1.20,-7.94,-6.45,-4.89,-0.17,2.28,0.72,1012.77
1.114,-1.38,0.88,-1.20,-7.94,-6.45,-4.89,0.99,1.41,-0.51,1012.77
1.114,-1.38,0.88,-1.20,-12.21,-0.73,-9.59,0.99,1.41,-0.51,1012.77
1.154,-0.05,2.28,-0.09,-12.21,-0.73,-9.59,0.99,1.41,-0.51,1012.77
1.156,-0.05,2.28,-0.09,-12.21,-0.73,-9.59,0.43,-2.11,-0.84,1012.77
1.158,-0.05,2.28,-0.09,1.33,12.87,1.30,0.43,-2.11,-0.84,1012.77
1.16,-0.05,2.28,-0.09,1.33,12.87,1.30,0.43,-2.11,-0.84,1012.77
1.192,0.07,0.10,-0.08,1.33,12.87,1.30,0.43,-2.11,-0.84,1012.77
1.194,0.07,0.10,-0.08,1.33,12.87,1.30,-0.62,0.60,-0.71,1012.77
1.195,0.07,0.10,-0.08,2.68,-8.37,1.22,-0.62,0.60,-0.71,1012.77
1.221,0.07,0.10,-0.08,2.68,-8.37,1.22,-0.62,0.60,-0.71,1012.78
1.232,-1.64,1.28,-0.55,2.68,-8.37,1.22,-0.62,0.60,-0.71,1012.78
1.234,-1.64,1.28,-0.55,2.68,-8.37,1.22,0.21,3.03,-0.65,1012.78
1.235,-1.64,1.28,-0.55,-13.86,3.19,-3.02,0.21,3.03,-0.65,1012.78
1.281,-0.24,1.07,-0.14,-13.86,3.19,-3.02,0.21,3.03,-0.65,1012.78
1.285,-0.24,1.07,-0.14,-13.86,3.19,-3.02,-0.11,-0.95,0.66,1012.78
1.288,-0.24,1.07,-0.14,-0.31,1.11,0.85,-0.11,-0.95,0.66,1012.78
1.289,-0.24,1.07,-0.14,-0.31,1.11,0.85,-0.11,-0.95,0.66,1012.78
1.337,-0.13,0.98,-0.25,-0.31,1.11,0.85,-0.11,-0.95,0.66,1012.78
1.34,-0.13,0.98,-0.25,-0.31,1.11,0.85,-0.03,0.04,0.77,1012.78
1.341,-0.13,0.98,-0.25,0.52,0.11,-0.27,-0.03,0.04,0.77,1012.78
1.342,-0.13,0.98,-0.25,0.52,0.11,-0.27,-0.03,0.04,0.77,1012.78
1.35,-0.33,0.87,-0.42,0.52,0.11,-0.27,-0.03,0.04,0.77,1012.78
1.352,-0.33,0.87,-0.42,0.52,0.11,-0.27,-0.13,0.28,0.72,1012.78
1.354,-0.33,0.87,-0.42,-1.77,-1.00,-1.92,-0.13,0.28,0.72,1012.78
1.391,-0.33,0.87,-0.42,2.89,-0.52,0.54,-0.13,0.28,0.72,1012.78
1.394,0.17,0.93,-0.15,2.89,-0.52,0.54,-0.13,0.28,0.72,1012.78
1.396,0.17,0.93,-0.15,2.89,-0.52,0.54,-0.28,-0.59,0.80,1012.78
1.4,0.17,0.93,-0.15,2.89,-0.52,0.54,-0.28,-0.59,0.80,1012.78
1.429,-0.00,0.93,-0.08,2.89,-0.52,0.54,-0.28,-0.59,0.80,1012.78
1.43,-0.00,0.93,-0.08,2.89,-0.52,0.54,-0.23,0.28,0.56,1012.78
1.43,-0.00,0.93,-0.08,0.96,-0.50,1.14,-0.23,0.28,0.56,1012.78
1.459,-0.00,0.93,-0.08,0.96,-0.50,1.14,-0.23,0.28,0.56,1012.78
1.467,0.00,0.93,-0.10,0.96,-0.50,1.14,-0.23,0.28,0.56,1012.78
1.469,0.00,0.93,-0.10,0.96,-0.50,1.14,-0.11,0.09,0.39,1012.78
1.47,0.00,0.93,-0.10,0.81,-0.49,0.88,-0.11,0.09,0.39,1012.78
1.508,0.16,0.94,-0.11,0.81,-0.49,0.88,-0.11,0.09,0.39,1012.78
1.509,0.16,0.94,-0.11,0.81,-0.49,0.88,0.02,-0.11,0.18,1012.78
1.51,0.16,0.94,-0.11,2.22,-0.44,0.77,0.02,-0.11,0.18,1012.78
1.52,0.16,0.94,-0.11,2.22,-0.44,0.77,0.02,-0.11,0.18,1012.79
1.554,0.11,1.02,-0.15,2.22,-0.44,0.77,0.02,-0.11,0.18,1012.79
1.559,0.11,1.02,-0.15,2.22,-0.44,0.77,0.14,0.04,-0.13,1012.79
1.56,0.11,1.02,-0.15,1.84,0.41,0.43,0.14,0.04,-0.13,1012.79
1.584,0.11,1.02,-0.15,1.84,0.41,0.43,0.14,0.04,-0.13,1012.79
1.587,0.08,1.12,-0.21,1.84,0.41,0.43,0.14,0.04,-0.13,1012.79
1.588,0.08,1.12,-0.21,1.84,0.41,0.43,0.19,-0.23,-0.28,1012.79
1.589,0.08,1.12,-0.21,1.64,1.38,-0.06,0.19,-0.23,-0.28,1012.79
1.626,-0.10,1.19,-0.24,1.64,1.38,-0.06,0.19,-0.23,-0.28,1012.79
1.628,-0.10,1.19,-0.24,1.64,1.38,-0.06,0.16,-0.73,-0.37,1012.79
1.63,-0.10,1.19,-0.24,0.05,2.07,-0.32,0.16,-0.73,-0.37,1012.79
1.657,-0.10,1.19,-0.24,0.05,2.07,-0.32,0.16,-0.73,-0.37,1012.79
1.667,-0.03,1.25,-0.46,0.05,2.07,-0.32,0.16,-0.73,-0.37,1012.79
1.669,-0.03,1.25,-0.46,0.05,2.07,-0.32,-0.01,-1.05,-0.34,1012.79
1.67,-0.03,1.25,-0.46,0.89,2.63,-2.44,-0.01,-1.05,-0.34,1012.79
1.703,-0.03,1.25,-0.46,0.89,2.63,-2.44,-0.01,-1.05,-0.34,1012.78
1.71,-0.03,1.25,-0.46,-2.65,2.91,-1.75,-0.01,-1.05,-0.34,1012.78
1.711,-0.41,1.29,-0.37,-2.65,2.91,-1.75,-0.01,-1.05,-0.34,1012.78
1.711,-0.41,1.29,-0.37,-2.65,2.91,-1.75,-0.30,-0.75,-0.14,1012.78
1.756,-0.12,1.43,0.01,-2.65,2.91,-1.75,-0.30,-0.75,-0.14,1012.78
1.761,-0.12,1.43,0.01,-2.65,2.91,-1.75,-0.54,-1.05,0.15,1012.78
1.763,-0.12,1.43,0.01,0.17,4.17,1.74,-0.54,-1.05,0.15,1012.78
1.765,-0.12,1.43,0.01,0.17,4.17,1.74,-0.54,-1.05,0.15,1012.77
1.794,0.84,1.27,0.19,0.17,4.17,1.74,-0.54,-1.05,0.15,1012.77
1.796,0.84,1.27,0.19,0.17,4.17,1.74,-0.52,-1.23,-0.01,1012.77
1.797,0.84,1.27,0.19,9.55,2.57,3.14,-0.52,-1.23,-0.01,1012.77
1.819,0.84,1.27,0.19,9.55,2.57,3.14,-0.52,-1.23,-0.01,1012.77
1.825,0.92,1.25,0.16,9.55,2.57,3.14,-0.52,-1.23,-0.01,1012.77
1.827,0.92,1.25,0.16,9.55,2.57,3.14,-0.19,0.61,-1.24,1012.77
1.828,0.92,1.25,0.16,10.57,2.41,2.79,-0.19,0.61,-1.24,1012.77
1.88,-0.51,1.63,-0.36,10.57,2.41,2.79,-0.19,0.61,-1.24,1012.77
1.884,-0.51,1.63,-0.36,10.57,2.41,2.79,0.63,2.35,-3.07,1012.77
1.886,-0.51,1.63,-0.36,-2.40,6.28,-1.82,0.63,2.35,-3.07,1012.77
1.888,-0.51,1.63,-0.36,-2.40,6.28,-1.82,0.63,2.35,-3.07,1012.78
1.917,-0.87,1.49,-0.48,-2.40,6.28,-1.82,0.63,2.35,-3.07,1012.78
1.92,-0.87,1.49,-0.48,-4.49,5.31,-2.60,0.63,2.35,-3.07,1012.78
1.921,-0.87,1.49,-0.48,-4.49,5.31,-2.60,1.01,0.43,-3.55,1012.78
1.938,-0.87,1.49,-0.48,-4.49,5.31,-2.60,1.01,0.43,-3.55,1012.80
1.96,-0.46,1.32,-0.38,-4.49,5.31,-2.60,1.01,0.43,-3.55,1012.80
1.963,-0.46,1.32,-0.38,-4.49,5.31,-2.60,0.92,-1.61,-3.08,1012.80
1.964,-0.46,1.32,-0.38,0.71,4.27,-1.51,0.92,-1.61,-3.08,1012.80
1.999,-0.66,1.04,-0.10,0.71,4.27,-1.51,0.92,-1.61,-3.08,1012.80
2.0,-0.66,1.04,-0.10,0.71,4.27,-1.51,0.64,-1.96,-2.68,1012.80
2.001,-0.66,1.04,-0.10,-0.18,2.11,0.99,0.64,-1.96,-2.68,1012.80
2.002,-0.66,1.04,-0.10,-0.18,2.11,0.99,0.64,-1.96,-2.68,1012.79
2.022,-0.43,0.72,0.11,-0.18,2.11,0.99,0.64,-1.96,-2.68,1012.79
2.024,-0.43,0.72,0.11,-0.18,2.11,0.99,0.48,-1.88,-1.91,1012.79
2.025,-0.43,0.72,0.11,2.74,-0.47,2.60,0.48,-1.88,-1.91,1012.79
2.08,-0.43,0.72,0.11,2.74,-0.47,2.60,0.48,-1.88,-1.91,1012.78
2.084,-0.26,0.61,0.03,2.74,-0.47,2.60,0.48,-1.88,-1.91,1012.78
2.086,-0.26,0.61,0.03,2.74,-0.47,2.60,0.46,-0.55,-1.03,1012.78
2.088,-0.26,0.61,0.03,4.69,-1.17,1.76,0.46,-0.55,-1.03,1012.78
2.111,-0.42,0.39,-0.08,4.69,-1.17,1.76,0.46,-0.55,-1.03,1012.78
2.119,-0.42,0.39,-0.08,4.69,-1.17,1.76,0.24,0.57,-0.07,1012.78
2.12,-0.42,0.39,-0.08,3.01,-3.22,0.90,0.24,0.57,-0.07,1012.78
2.121,-0.42,0.39,-0.08,3.01,-3.22,0.90,0.24,0.57,-0.07,1012.76
2.143,-0.51,0.14,-0.01,3.01,-3.22,0.90,0.24,0.57,-0.07,1012.76
2.147,-0.51,0.14,-0.01,1.83,-5.90,1.62,0.24,0.57,-0.07,1012.76
2.15,-0.51,0.14,-0.01,1.83,-5.90,1.62,-0.08,0.21,1.08,1012.76
2.199,-0.40,0.03,0.04,1.83,-5.90,1.62,-0.08,0.21,1.08,1012.76
2.202,-0.40,0.03,0.04,1.83,-5.90,1.62,-0.15,-0.38,2.23,1012.76
2.203,-0.40,0.03,0.04,2.20,-7.43,1.94,-0.15,-0.38,2.23,1012.76
2.205,-0.40,0.03,0.04,2.20,-7.43,1.94,-0.15,-0.38,2.23,1012.76
2.234,-0.35,0.09,0.06,2.20,-7.43,1.94,-0.15,-0.38,2.23,1012.76
2.239,-0.35,0.09,0.06,2.20,-7.43,1.94,0.00,-0.31,2.95,1012.76
2.241,-0.35,0.09,0.06,1.76,-7.42,2.03,0.00,-0.31,2.95,1012.76
2.242,-0.35,0.09,0.06,1.76,-7.42,2.03,0.00,-0.31,2.95,1012.75
2.265,-0.50,0.29,-0.11,1.76,-7.42,2.03,0.00,-0.31,2.95,1012.75
2.266,-0.50,0.29,-0.11,1.76,-7.42,2.03,0.07,0.25,3.08,1012.75
2.267,-0.50,0.29,-0.11,-0.75,-5.86,0.45,0.07,0.25,3.08,1012.75
2.297,-0.68,0.48,-0.25,-0.75,-5.86,0.45,0.07,0.25,3.08,1012.75
2.299,-0.68,0.48,-0.25,-0.75,-5.86,0.45,-0.02,0.37,2.56,1012.75
2.299,-0.68,0.48,-0.25,-3.41,-4.34,-0.90,-0.02,0.37,2.56,1012.75
2.3,-0.68,0.48,-0.25,-3.41,-4.34,-0.90,-0.02,0.37,2.56,1012.73
2.339,-0.71,0.52,-0.32,-3.41,-4.34,-0.90,-0.02,0.37,2.56,1012.73
2.342,-0.71,0.52,-0.32,-3.41,-4.34,-0.90,0.07,0.55,1.43,1012.73
2.342,-0.71,0.52,-0.32,-4.24,-4.04,-1.49,0.07,0.55,1.43,1012.73
2.362,-0.71,0.52,-0.32,-4.24,-4.04,-1.49,0.07,0.55,1.43,1012.72
2.394,-0.81,0.42,-0.39,-4.24,-4.04,-1.49,0.07,0.55,1.43,1012.72
2.395,-0.81,0.42,-0.39,-4.24,-4.04,-1.49,0.48,1.03,0.28,1012.72
2.396,-0.81,0.42,-0.39,-5.31,-4.89,-1.84,0.48,1.03,0.28,1012.72
2.416,-0.86,1.97,-0.50,-5.31,-4.89,-1.84,0.48,1.03,0.28,1012.72
2.416,-0.86,1.97,-0.50,-5.31,-4.89,-1.84,0.84,0.77,-0.59,1012.72
2.417,-0.86,1.97,-0.50,-5.51,10.20,-2.53,0.84,0.77,-0.59,1012.72
2.417,-0.86,1.97,-0.50,-5.51,10.20,-2.53,0.84,0.77,-0.59,1012.71
2.456,0.28,0.94,-0.28,-5.51,10.20,-2.53,0.84,0.77,-0.59,1012.71
2.46,0.28,0.94,-0.28,-5.51,10.20,-2.53,-0.19,-0.38,-0.43,1012.71
2.461,0.28,0.94,-0.28,5.75,0.16,-0.46,-0.19,-0.38,-0.43,1012.71
2.489,0.28,0.94,-0.28,5.75,0.16,-0.46,-0.19,-0.38,-0.43,1012.71
2.497,-1.08,0.58,-0.35,5.75,0.16,-0.46,-0.19,-0.38,-0.43,1012.71
2.501,-1.08,0.58,-0.35,5.75,0.16,-0.46,0.21,1.52,-0.27,1012.71
2.502,-1.08,0.58,-0.35,-7.52,-3.25,-0.89,0.21,1.52,-0.27,1012.71
2.536,-0.59,1.23,-0.50,-7.52,-3.25,-0.89,0.21,1.52,-0.27,1012.71
2.539,-0.59,1.23,-0.50,-7.52,-3.25,-0.89,-0.00,0.43,0.21,1012.71
2.541,-0.59,1.23,-0.50,-7.52,-3.25,-0.89,-0.00,0.43,0.21,1012.72
2.543,-0.59,1.23,-0.50,-2.78,2.99,-2.26,-0.00,0.43,0.21,1012.72
2.577,-0.33,0.96,-0.31,-2.78,2.99,-2.26,-0.00,0.43,0.21,1012.72
2.578,-0.33,0.96,-0.31,-0.45,0.27,-0.46,-0.00,0.43,0.21,1012.72
2.579,-0.33,0.96,-0.31,-0.45,0.27,-0.46,-0.24,0.23,0.51,1012.72
2.598,-0.33,0.96,-0.31,-0.45,0.27,-0.46,-0.24,0.23,0.51,1012.72
2.616,-0.64,0.98,-0.26,-0.45,0.27,-0.46,-0.24,0.23,0.51,1012.72
2.62,-0.64,0.98,-0.26,-0.45,0.27,-0.46,-0.24,0.60,0.67,1012.72
2.622,-0.64,0.98,-0.26,-3.66,0.35,0.03,-0.24,0.60,0.67,1012.72
2.662,-0.20,0.96,-0.20,-3.66,0.35,0.03,-0.24,0.60,0.67,1012.72
2.666,-0.20,0.96,-0.20,-3.66,0.35,0.03,-0.24,-0.26,0.96,1012.72
2.668,-0.20,0.96,-0.20,0.24,0.08,0.54,-0.24,-0.26,0.96,1012.72
2.669,-0.20,0.96,-0.20,0.24,0.08,0.54,-0.24,-0.26,0.96,1012.72
2.694,-0.20,0.96,-0.20,0.53,-0.38,-0.49,-0.24,-0.26,0.96,1012.72
2.696,-0.14,0.92,-0.29,0.53,-0.38,-0.49,-0.24,-0.26,0.96,1012.72
2.696,-0.14,0.92,-0.29,0.53,-0.38,-0.49,-0.16,-0.28,0.94,1012.72
2.718,-0.14,0.92,-0.29,0.53,-0.38,-0.49,-0.16,-0.28,0.94,1012.72
2.735,-0.04,0.91,-0.26,0.53,-0.38,-0.49,-0.16,-0.28,0.94,1012.72
2.74,-0.04,0.91,-0.26,0.53,-0.38,-0.49,-0.20,-0.36,0.85,1012.72
2.743,-0.04,0.91,-0.26,1.24,-0.56,-0.30,-0.20,-0.36,0.85,1012.72
2.785,0.17,0.91,-0.15,1.24,-0.56,-0.30,-0.20,-0.36,0.85,1012.72
2.788,0.17,0.91,-0.15,1.24,-0.56,-0.30,-0.19,-0.35,0.66,1012.72
2.79,0.17,0.91,-0.15,2.97,-0.57,0.74,-0.19,-0.35,0.66,1012.72
2.791,0.17,0.91,-0.15,2.97,-0.57,0.74,-0.19,-0.35,0.66,1012.72
2.828,0.16,0.93,-0.11,2.97,-0.57,0.74,-0.19,-0.35,0.66,1012.72
2.831,0.16,0.93,-0.11,2.97,-0.57,0.74,-0.07,-0.01,0.35,1012.72
2.833,0.16,0.93,-0.11,2.74,-0.42,1.09,-0.07,-0.01,0.35,1012.72
2.836,0.16,0.93,-0.11,2.74,-0.42,1.09,-0.07,-0.01,0.35,1012.72
2.851,0.21,0.97,-0.11,2.74,-0.42,1.09,-0.07,-0.01,0.35,1012.72
2.853,0.21,0.97,-0.11,2.74,-0.42,1.09,0.07,0.08,-0.04,1012.72
2.854,0.21,0.97,-0.11,3.19,-0.07,1.06,0.07,0.08,-0.04,1012.72
2.892,0.09,1.07,-0.25,3.19,-0.07,1.06,0.07,0.08,-0.04,1012.72
2.894,0.09,1.07,-0.25,3.19,-0.07,1.06,0.17,0.14,-0.39,1012.72
2.895,0.09,1.07,-0.25,2.14,0.97,-0.19,0.17,0.14,-0.39,1012.72
2.896,0.09,1.07,-0.25,2.14,0.97,-0.19,0.17,0.14,-0.39,1012.72
2.93,-0.13,1.13,-0.40,2.14,0.97,-0.19,0.17,0.14,-0.39,1012.72
2.931,-0.13,1.13,-0.40,2.14,0.97,-0.19,0.13,-0.17,-0.56,1012.72
2.932,-0.13,1.13,-0.40,0.17,1.58,-1.62,0.13,-0.17,-0.56,1012.72
2.957,-0.13,1.13,-0.40,0.17,1.58,-1.62,0.13,-0.17,-0.56,1012.72
2.977,-0.53,1.17,-0.45,0.17,1.58,-1.62,0.13,-0.17,-0.56,1012.72
2.98,-0.53,1.17,-0.45,0.17,1.58,-1.62,-0.04,-0.45,-0.41,1012.72
2.982,-0.53,1.17,-0.45,-3.45,1.93,-2.11,-0.04,-0.45,-0.41,1012.72
3.009,-0.73,1.46,-0.30,-3.45,1.93,-2.11,-0.04,-0.45,-0.41,1012.72
3.011,-0.73,1.46,-0.30,-3.45,1.93,-2.11,-0.35,-0.58,0.12,1012.72
3.013,-0.73,1.46,-0.30,-5.35,4.69,-0.86,-0.35,-0.58,0.12,1012.72
3.015,-0.73,1.46,-0.30,-5.35,4.69,-0.86,-0.35,-0.58,0.12,1012.73
3.056,0.37,1.66,0.07,-5.35,4.69,-0.86,-0.35,-0.58,0.12,1012.73
3.059,0.37,1.66,0.07,-5.35,4.69,-0.86,-0.70,-0.89,0.68,1012.73
3.061,0.37,1.66,0.07,5.12,6.38,2.45,-0.70,-0.89,0.68,1012.73
3.09,0.37,1.66,0.07,5.12,6.38,2.45,-0.70,-0.89,0.68,1012.74
3.092,1.10,1.48,0.31,5.12,6.38,2.45,-0.70,-0.89,0.68,1012.74
3.093,1.10,1.48,0.31,5.12,6.38,2.45,-0.56,0.36,-0.12,1012.74
3.094,1.10,1.48,0.31,12.13,4.55,4.52,-0.56,0.36,-0.12,1012.74
3.127,0.09,1.76,-0.28,12.13,4.55,4.52,-0.56,0.36,-0.12,1012.74
3.132,0.09,1.76,-0.28,12.13,4.55,4.52,0.42,1.70,-2.60,1012.74
3.134,0.09,1.76,-0.28,3.07,7.33,-0.97,0.42,1.70,-2.60,1012.74
3.136,0.09,1.76,-0.28,3.07,7.33,-0.97,0.42,1.70,-2.60,1012.75
3.17,-0.88,1.65,-0.50,3.07,7.33,-0.97,0.42,1.70,-2.60,1012.75
3.173,-0.88,1.65,-0.50,3.07,7.33,-0.97,0.96,0.43,-3.79,1012.75
3.174,-0.88,1.65,-0.50,-4.96,6.71,-2.64,0.96,0.43,-3.79,1012.75
3.212,-0.88,1.65,-0.50,-4.96,6.71,-2.64,0.96,0.43,-3.79,1012.76
3.214,-0.34,1.42,-0.42,-4.96,6.71,-2.64,0.96,0.43,-3.79,1012.76
3.216,-0.34,1.42,-0.42,-4.96,6.71,-2.64,0.83,-2.58,-2.94,1012.76
3.217,-0.34,1.42,-0.42,1.60,4.95,-1.97,0.83,-2.58,-2.94,1012.76
3.252,0.07,1.12,0.00,1.60,4.95,-1.97,0.83,-2.58,-2.94,1012.76
3.254,0.07,1.12,0.00,1.60,4.95,-1.97,0.42,-3.08,-2.46,1012.76
3.255,0.07,1.12,0.00,6.56,2.50,1.59,0.42,-3.08,-2.46,1012.76
3.256,0.07,1.12,0.00,6.56,2.50,1.59,0.42,-3.08,-2.46,1012.75
3.294,-0.00,0.69,0.05,6.56,2.50,1.59,0.42,-3.08,-2.46,1012.75
3.297,-0.00,0.69,0.05,6.48,-1.19,1.97,0.42,-3.08,-2.46,1012.75
3.299,-0.00,0.69,0.05,6.48,-1.19,1.97,0.46,-0.98,-2.00,1012.75
3.316,-0.00,0.69,0.05,6.48,-1.19,1.97,0.46,-0.98,-2.00,1012.73
3.325,-0.16,0.44,-0.21,6.48,-1.19,1.97,0.46,-0.98,-2.00,1012.73
3.326,-0.16,0.44,-0.21,6.48,-1.19,1.97,0.59,1.00,-1.04,1012.73
3.328,-0.16,0.44,-0.21,5.15,-3.28,-0.16,0.59,1.00,-1.04,1012.73
3.367,-0.33,0.21,-0.24,5.15,-3.28,-0.16,0.59,1.00,-1.04,1012.73
3.37,-0.33,0.21,-0.24,3.17,-5.42,0.00,0.59,1.00,-1.04,1012.73
3.371,-0.33,0.21,-0.24,3.17,-5.42,0.00,0.31,1.46,0.22,1012.73
3.375,-0.33,0.21,-0.24,3.17,-5.42,0.00,0.31,1.46,0.22,1012.71
3.404,-0.45,0.04,-0.12,3.17,-5.42,0.00,0.31,1.46,0.22,1012.71
3.406,-0.45,0.04,-0.12,3.17,-5.42,0.00,0.00,0.72,1.50,1012.71
3.408,-0.45,0.04,-0.12,1.44,-7.39,1.31,0.00,0.72,1.50,1012.71
3.436,-0.45,0.04,-0.12,1.44,-7.39,1.31,0.00,0.72,1.50,1012.69
3.447,-0.38,-0.02,-0.05,1.44,-7.39,1.31,0.00,0.72,1.50,1012.69
3.452,-0.38,-0.02,-0.05,1.44,-7.39,1.31,-0.08,0.22,2.58,1012.69
3.454,-0.38,-0.02,-0.05,1.25,-8.31,2.01,-0.08,0.22,2.58,1012.69
3.485,-0.48,0.08,-0.13,1.25,-8.31,2.01,-0.08,0.22,2.58,1012.69
3.489,-0.48,0.08,-0.13,1.25,-8.31,2.01,-0.06,0.55,3.06,1012.69
3.49,-0.48,0.08,-0.13,-0.75,-7.81,1.31,-0.06,0.55,3.06,1012.69
3.521,-0.48,0.08,-0.13,-0.75,-7.81,1.31,-0.06,0.55,3.06,1012.68
3.523,-0.48,0.08,-0.13,-4.07,-6.06,-0.67,-0.06,0.55,3.06,1012.68
3.524,-0.72,0.29,-0.34,-4.07,-6.06,-0.67,-0.06,0.55,3.06,1012.68
3.525,-0.72,0.29,-0.34,-4.07,-6.06,-0.67,-0.21,1.10,2.66,1012.68
3.556,-0.72,0.29,-0.34,-4.07,-6.06,-0.67,-0.21,1.10,2.66,1012.67
3.579,-1.02,0.18,-0.32,-4.07,-6.06,-0.67,-0.21,1.10,2.66,1012.67
3.581,-1.02,0.18,-0.32,-4.07,-6.06,-0.67,-0.31,1.08,1.46,1012.67
3.581,-1.02,0.18,-0.32,-7.46,-7.15,-0.49,-0.31,1.08,1.46,1012.67
3.602,-1.30,0.54,-0.85,-7.46,-7.15,-0.49,-0.31,1.08,1.46,1012.67
3.603,-1.30,0.54,-0.85,-7.46,-7.15,-0.49,0.32,0.95,0.39,1012.67
3.604,-1.30,0.54,-0.85,-10.31,-3.61,-5.36,0.32,0.95,0.39,1012.67
3.616,-1.30,0.54,-0.85,-10.31,-3.61,-5.36,0.32,0.95,0.39,1012.68
3.642,-0.40,2.70,-0.52,-10.31,-3.61,-5.36,0.32,0.95,0.39,1012.68
3.644,-0.40,2.70,-0.52,-10.31,-3.61,-5.36,0.43,-0.27,-0.89,1012.68
3.646,-0.40,2.70,-0.52,-1.11,17.40,-1.99,0.43,-0.27,-0.89,1012.68
3.674,-0.40,2.70,-0.52,-1.11,17.40,-1.99,0.43,-0.27,-0.89,1012.70
3.681,0.30,0.12,-0.26,-1.11,17.40,-1.99,0.43,-0.27,-0.89,1012.70
3.683,0.30,0.12,-0.26,-1.11,17.40,-1.99,-0.64,-0.00,-0.07,1012.70
3.685,0.30,0.12,-0.26,5.65,-7.80,0.31,-0.64,-0.00,-0.07,1012.70
3.721,-1.28,1.15,-0.46,5.65,-7.80,0.31,-0.64,-0.00,-0.07,1012.70
3.722,-1.28,1.15,-0.46,5.65,-7.80,0.31,-0.01,2.19,-0.35,1012.70
3.722,-1.28,1.15,-0.46,-9.79,2.32,-1.40,-0.01,2.19,-0.35,1012.70
3.735,-1.28,1.15,-0.46,-9.79,2.32,-1.40,-0.01,2.19,-0.35,1012.70
3.781,-0.33,1.05,-0.28,-9.79,2.32,-1.40,-0.01,2.19,-0.35,1012.70
3.785,-0.33,1.05,-0.28,-9.79,2.32,-1.40,-0.26,-0.12,0.37,1012.70
3.786,-0.33,1.05,-0.28,-0.56,1.24,0.31,-0.26,-0.12,0.37,1012.70
3.84,-0.33,1.05,-0.28,-0.56,1.24,0.31,-0.26,-0.12,0.37,1012.71
3.843,-0.46,0.96,-0.28,-0.56,1.24,0.31,-0.26,-0.12,0.37,1012.71
3.844,-0.46,0.96,-0.28,-0.56,1.24,0.31,-0.19,0.13,0.54,1012.71
3.845,-0.46,0.96,-0.28,-2.00,0.26,0.22,-0.19,0.13,0.54,1012.71
3.849,-0.33,0.93,-0.30,-2.00,0.26,0.22,-0.19,0.13,0.54,1012.71
3.851,-0.33,0.93,-0.30,-2.00,0.26,0.22,-0.17,-0.01,0.78,1012.71
3.852,-0.33,0.93,-0.30,-1.01,-0.06,-0.03,-0.17,-0.01,0.78,1012.71
3.854,-0.33,0.93,-0.30,-1.01,-0.06,-0.03,-0.17,-0.01,0.78,1012.70
3.88,-0.21,0.94,-0.33,-1.01,-0.06,-0.03,-0.17,-0.01,0.78,1012.70
3.883,-0.21,0.94,-0.33,-1.01,-0.06,-0.03,-0.19,-0.41,0.85,1012.70
3.888,-0.21,0.94,-0.33,-0.08,-0.11,-0.47,-0.19,-0.41,0.85,1012.70
3.914,-0.21,0.94,-0.33,-0.08,-0.11,-0.47,-0.19,-0.41,0.85,1012.71
3.917,-0.05,0.90,-0.31,-0.08,-0.11,-0.47,-0.19,-0.41,0.85,1012.71
3.918,-0.05,0.90,-0.31,-0.08,-0.11,-0.47,-0.24,-0.53,0.87,1012.71
3.919,-0.05,0.90,-0.31,1.18,-0.54,-0.37,-0.24,-0.53,0.87,1012.71
3.965,0.15,0.91,-0.28,1.18,-0.54,-0.37,-0.24,-0.53,0.87,1012.71
3.968,0.15,0.91,-0.28,1.18,-0.54,-0.37,-0.27,-0.41,0.71,1012.71
3.969,0.15,0.91,-0.28,2.85,-0.54,-0.20,-0.27,-0.41,0.71,1012.71
3.973,0.15,0.91,-0.28,2.85,-0.54,-0.20,-0.27,-0.41,0.71,1012.70
3.996,0.16,0.92,-0.13,2.85,-0.54,-0.20,-0.27,-0.41,0.71,1012.70
3.998,0.16,0.92,-0.13,2.85,-0.54,-0.20,-0.20,-0.19,0.44,1012.70
3.998,0.16,0.92,-0.13,2.80,-0.42,1.20,-0.20,-0.19,0.44,1012.70
4.034,0.16,0.92,-0.13,2.80,-0.42,1.20,-0.20,-0.19,0.44,1012.69
4.039,0.16,0.99,-0.12,2.80,-0.42,1.20,-0.20,-0.19,0.44,1012.69
4.041,0.16,0.99,-0.12,2.80,-0.42,1.20,-0.03,-0.01,0.10,1012.69
4.043,0.16,0.99,-0.12,2.68,0.24,1.24,-0.03,-0.01,0.10,1012.69
4.077,-0.15,1.02,-0.26,2.68,0.24,1.24,-0.03,-0.01,0.10,1012.69
4.081,-0.15,1.02,-0.26,2.68,0.24,1.24,0.07,0.14,-0.20,1012.69
4.083,-0.15,1.02,-0.26,-0.25,0.52,-0.14,0.07,0.14,-0.20,1012.69
4.108,-0.15,1.02,-0.26,-0.25,0.52,-0.14,0.07,0.14,-0.20,1012.69
4.116,0.06,1.08,-0.30,-0.25,0.52,-0.14,0.07,0.14,-0.20,1012.69
4.119,0.06,1.08,-0.30,-0.25,0.52,-0.14,0.04,-0.53,-0.28,1012.69
4.121,0.06,1.08,-0.30,1.85,1.12,-0.48,0.04,-0.53,-0.28,1012.69
4.156,-0.06,1.20,-0.41,1.85,1.12,-0.48,0.04,-0.53,-0.28,1012.69
4.158,-0.06,1.20,-0.41,1.85,1.12,-0.48,-0.01,-0.43,-0.33,1012.69
4.159,-0.06,1.20,-0.41,0.83,2.25,-1.54,-0.01,-0.43,-0.33,1012.69
4.16,-0.06,1.20,-0.41,0.83,2.25,-1.54,-0.01,-0.43,-0.33,1012.70
4.194,-0.56,1.36,-0.38,0.83,2.25,-1.54,-0.01,-0.43,-0.33,1012.70
4.197,-0.56,1.36,-0.38,0.83,2.25,-1.54,-0.21,-0.63,-0.19,1012.70
4.198,-0.56,1.36,-0.38,-3.81,3.71,-1.41,-0.21,-0.63,-0.19,1012.70
4.214,-0.56,1.36,-0.38,-3.81,3.71,-1.41,-0.21,-0.63,-0.19,1012.71
4.235,-0.19,1.61,-0.07,-3.81,3.71,-1.41,-0.21,-0.63,-0.19,1012.71
4.239,-0.19,1.61,-0.07,-3.81,3.71,-1.41,-0.52,-1.31,0.29,1012.71
4.241,-0.19,1.61,-0.07,-0.19,6.00,1.39,-0.52,-1.31,0.29,1012.71
4.284,0.76,1.48,0.14,-0.19,6.00,1.39,-0.52,-1.31,0.29,1012.71
4.287,0.76,1.48,0.14,-0.19,6.00,1.39,-0.74,-0.89,0.35,1012.71
4.289,0.76,1.48,0.14,8.93,4.57,3.04,-0.74,-0.89,0.35,1012.71
4.289,0.76,1.48,0.14,8.93,4.57,3.04,-0.74,-0.89,0.35,1012.71
4.332,1.03,1.37,0.09,8.93,4.57,3.04,-0.74,-0.89,0.35,1012.71
4.335,1.03,1.37,0.09,8.93,4.57,3.04,-0.37,0.61,-0.74,1012.71
4.336,1.03,1.37,0.09,11.61,3.48,2.35,-0.37,0.61,-0.74,1012.71
4.338,1.03,1.37,0.09,11.61,3.48,2.35,-0.37,0.61,-0.74,1012.72
4.353,-0.03,1.48,-0.34,11.61,3.48,2.35,-0.37,0.61,-0.74,1012.72
4.355,-0.03,1.48,-0.34,11.61,3.48,2.35,0.49,2.45,-2.60,1012.72
4.356,-0.03,1.48,-0.34,1.98,4.71,-1.44,0.49,2.45,-2.60,1012.72
4.4,-0.92,1.34,-0.50,1.98,4.71,-1.44,0.49,2.45,-2.60,1012.72
4.401,-0.92,1.34,-0.50,1.98,4.71,-1.44,0.98,1.83,-3.41,1012.72
4.402,-0.92,1.34,-0.50,1.98,4.71,-1.44,0.98,1.83,-3.41,1012.72
4.402,-0.92,1.34,-0.50,-5.47,3.78,-2.39,0.98,1.83,-3.41,1012.72
4.43,-0.38,1.37,-0.55,-5.47,3.78,-2.39,0.98,1.83,-3.41,1012.72
4.432,-0.38,1.37,-0.55,-5.47,3.78,-2.39,0.96,-1.39,-2.80,1012.72
4.433,-0.38,1.37,-0.55,0.90,4.57,-2.71,0.96,-1.39,-2.80,1012.72
4.452,-0.38,1.37,-0.55,0.90,4.57,-2.71,0.96,-1.39,-2.80,1012.71
4.474,-0.45,1.05,-0.36,0.90,4.57,-2.71,0.96,-1.39,-2.80,1012.71
4.476,-0.45,1.05,-0.36,0.90,4.57,-2.71,0.61,-2.30,-2.68,1012.71
4.477,-0.45,1.05,-0.36,1.39,1.96,-1.16,0.61,-2.30,-2.68,1012.71
4.512,-0.54,0.70,-0.08,1.39,1.96,-1.16,0.61,-2.30,-2.68,1012.71
4.515,-0.54,0.70,-0.08,1.39,1.96,-1.16,0.39,-1.95,-2.20,1012.71
4.517,-0.54,0.70,-0.08,1.39,1.96,-1.16,0.39,-1.95,-2.20,1012.69
4.52,-0.54,0.70,-0.08,1.38,-0.86,1.24,0.39,-1.95,-2.20,1012.69
4.568,-0.14,0.64,-0.13,1.38,-0.86,1.24,0.39,-1.95,-2.20,1012.69
4.573,-0.14,0.64,-0.13,1.38,-0.86,1.24,0.41,-0.81,-1.24,1012.69
4.575,-0.14,0.64,-0.13,5.63,-1.03,0.66,0.41,-0.81,-1.24,1012.69
4.576,-0.14,0.64,-0.13,5.63,-1.03,0.66,0.41,-0.81,-1.24,1012.68
4.602,-0.12,0.19,-0.14,5.63,-1.03,0.66,0.41,-0.81,-1.24,1012.68
4.605,-0.12,0.19,-0.14,5.63,-1.03,0.66,0.13,1.09,-0.22,1012.68
4.607,-0.12,0.19,-0.14,5.70,-5.32,0.85,0.13,1.09,-0.22,1012.68
4.631,-0.44,-0.05,-0.11,5.70,-5.32,0.85,0.13,1.09,-0.22,1012.68
4.634,-0.44,-0.05,-0.11,5.70,-5.32,0.85,-0.21,1.88,1.04,1012.68
4.637,-0.44,-0.05,-0.11,2.00,-7.86,1.58,-0.21,1.88,1.04,1012.68
4.64,-0.44,-0.05,-0.11,2.00,-7.86,1.58,-0.21,1.88,1.04,1012.67
4.682,-0.40,-0.12,-0.07,2.00,-7.86,1.58,-0.21,1.88,1.04,1012.67
4.686,-0.40,-0.12,-0.07,2.00,-7.86,1.58,-0.41,1.02,2.42,1012.67
4.688,-0.40,-0.12,-0.07,1.54,-9.02,2.05,-0.41,1.02,2.42,1012.67
4.692,-0.40,-0.12,-0.07,1.54,-9.02,2.05,-0.41,1.02,2.42,1012.66
4.718,-0.35,-0.14,-0.09,1.54,-9.02,2.05,-0.41,1.02,2.42,1012.66
4.72,-0.35,-0.14,-0.09,1.54,-9.02,2.05,-0.42,0.54,3.31,1012.66
4.722,-0.35,-0.14,-0.09,0.88,-9.73,1.81,-0.42,0.54,3.31,1012.66
4.757,-0.59,0.26,-0.31,0.88,-9.73,1.81,-0.42,0.54,3.31,1012.66
4.758,-0.59,0.26,-0.31,0.88,-9.73,1.81,-0.41,0.53,3.52,1012.66
4.759,-0.59,0.26,-0.31,-2.71,-6.22,-0.42,-0.41,0.53,3.52,1012.66
4.76,-0.59,0.26,-0.31,-2.71,-6.22,-0.42,-0.41,0.53,3.52,1012.65
4.787,-0.66,0.60,-0.22,-2.71,-6.22,-0.42,-0.41,0.53,3.52,1012.65
4.788,-0.66,0.60,-0.22,-2.71,-6.22,-0.42,-0.70,0.45,2.93,1012.65
4.789,-0.66,0.60,-0.22,-4.36,-3.19,0.25,-0.70,0.45,2.93,1012.65
4.813,-0.66,0.60,-0.22,-4.36,-3.19,0.25,-0.70,0.45,2.93,1012.64
4.828,-1.63,0.67,-1.23,-4.36,-3.19,0.25,-0.70,0.45,2.93,1012.64
4.831,-1.63,0.67,-1.23,-4.36,-3.19,0.25,0.02,1.94,1.19,1012.64
4.833,-1.63,0.67,-1.23,-14.25,-2.58,-9.33,0.02,1.94,1.19,1012.64
4.868,-0.59,2.41,-0.25,-14.25,-2.58,-9.33,0.02,1.94,1.19,1012.64
4.87,-0.59,2.41,-0.25,-14.25,-2.58,-9.33,0.31,0.31,-1.32,1012.64
4.873,-0.59,2.41,-0.25,-3.59,14.36,0.39,0.31,0.31,-1.32,1012.64
4.874,-0.59,2.41,-0.25,-3.59,14.36,0.39,0.31,0.31,-1.32,1012.64
4.907,0.88,0.36,-0.04,-3.59,14.36,0.39,0.31,0.31,-1.32,1012.64
4.911,0.88,0.36,-0.04,-3.59,14.36,0.39,-0.60,-0.92,0.57,1012.64
4.913,0.88,0.36,-0.04,10.52,-5.68,2.14,-0.60,-0.92,0.57,1012.64
4.932,0.88,0.36,-0.04,10.52,-5.68,2.14,-0.60,-0.92,0.57,1012.65
4.945,-1.44,1.19,-0.40,10.52,-5.68,2.14,-0.60,-0.92,0.57,1012.65
4.946,-1.44,1.19,-0.40,10.52,-5.68,2.14,0.17,2.57,-0.19,1012.65
4.947,-1.44,1.19,-0.40,-12.16,2.37,-1.17,0.17,2.57,-0.19,1012.65
4.985,-0.26,1.03,-0.25,-12.16,2.37,-1.17,0.17,2.57,-0.19,1012.65
4.989,-0.26,1.03,-0.25,-12.16,2.37,-1.17,-0.12,-0.23,0.52,1012.65
4.989,-0.26,1.03,-0.25,-0.71,0.78,0.26,-0.12,-0.23,0.52,1012.65
4.991,-0.26,1.03,-0.25,-0.71,0.78,0.26,-0.12,-0.23,0.52,1012.66
5.024,-0.32,0.99,-0.33,-0.71,0.78,0.26,-0.12,-0.23,0.52,1012.66
5.026,-0.32,0.99,-0.33,-0.71,0.78,0.26,-0.08,-0.38,0.70,1012.66
5.027,-0.32,0.99,-0.33,-1.50,0.35,-0.57,-0.08,-0.38,0.70,1012.66
5.065,-0.32,0.99,-0.33,-1.50,0.35,-0.57,-0.08,-0.38,0.70,1012.66
5.068,-0.07,0.93,-0.27,-1.50,0.35,-0.57,-0.08,-0.38,0.70,1012.66
5.069,-0.07,0.93,-0.27,-1.50,0.35,-0.57,-0.16,-0.28,0.93,1012.66
5.069,-0.07,0.93,-0.27,0.57,-0.35,-0.07,-0.16,-0.28,0.93,1012.66
5.105,-0.02,0.94,-0.36,0.57,-0.35,-0.07,-0.16,-0.28,0.93,1012.66
5.108,-0.02,0.94,-0.36,0.57,-0.35,-0.07,-0.22,-0.08,0.86,1012.66
5.11,-0.02,0.94,-0.36,0.78,-0.32,-1.05,-0.22,-0.08,0.86,1012.66
5.112,-0.02,0.94,-0.36,0.78,-0.32,-1.05,-0.22,-0.08,0.86,1012.65
5.144,0.01,0.91,-0.21,0.78,-0.32,-1.05,-0.22,-0.08,0.86,1012.65
5.146,0.01,0.91,-0.21,0.78,-0.32,-1.05,-0.31,-0.44,0.82,1012.65
5.149,0.01,0.91,-0.21,0.78,-0.61,0.34,-0.31,-0.44,0.82,1012.65
5.187,0.01,0.91,-0.21,0.78,-0.61,0.34,-0.31,-0.44,0.82,1012.65
5.191,0.22,0.94,-0.16,0.78,-0.61,0.34,-0.31,-0.44,0.82,1012.65
5.192,0.22,0.94,-0.16,0.78,-0.61,0.34,-0.23,-0.45,0.68,1012.65
5.193,0.22,0.94,-0.16,2.55,-0.33,0.70,-0.23,-0.45,0.68,1012.65
5.229,0.00,0.98,-0.20,2.55,-0.33,0.70,-0.23,-0.45,0.68,1012.65
5.233,0.00,0.98,-0.20,2.55,-0.33,0.70,-0.15,0.00,0.49,1012.65
5.235,0.00,0.98,-0.20,0.23,-0.03,0.27,-0.15,0.00,0.49,1012.65
5.236,0.00,0.98,-0.20,0.23,-0.03,0.27,-0.15,0.00,0.49,1012.66
5.261,0.08,0.98,-0.18,0.23,-0.03,0.27,-0.15,0.00,0.49,1012.66
5.263,0.08,0.98,-0.18,0.23,-0.03,0.27,-0.12,-0.29,0.38,1012.66
5.263,0.08,0.98,-0.18,0.92,0.03,0.40,-0.12,-0.29,0.38,1012.66
5.303,0.08,0.98,-0.18,1.47,0.02,0.27,-0.12,-0.29,0.38,1012.66
5.308,0.08,0.98,-0.18,1.47,0.02,0.27,-0.12,-0.29,0.38,1012.66
5.31,0.15,0.98,-0.19,1.47,0.02,0.27,-0.12,-0.29,0.38,1012.66
5.311,0.15,0.98,-0.19,1.47,0.02,0.27,-0.06,-0.41,0.20,1012.66
5.341,0.15,1.01,-0.18,1.47,0.02,0.27,-0.06,-0.41,0.20,1012.66
5.342,0.15,1.01,-0.18,1.47,0.02,0.27,-0.01,-0.41,-0.01,1012.66
5.342,0.15,1.01,-0.18,1.47,0.24,0.37,-0.01,-0.41,-0.01,1012.66
5.352,0.15,1.01,-0.18,1.47,0.24,0.37,-0.01,-0.41,-0.01,1012.65
5.381,0.28,0.99,-0.20,1.47,0.24,0.37,-0.01,-0.41,-0.01,1012.65
5.383,0.28,0.99,-0.20,1.47,0.24,0.37,0.03,-0.43,-0.23,1012.65
5.383,0.28,0.99,-0.20,2.83,0.07,0.14,0.03,-0.43,-0.23,1012.65
5.413,0.28,0.99,-0.20,2.83,0.07,0.14,0.03,-0.43,-0.23,1012.64
5.419,0.25,1.08,-0.21,2.83,0.07,0.14,0.03,-0.43,-0.23,1012.64
5.421,0.25,1.08,-0.21,2.83,0.07,0.14,0.04,-0.27,-0.42,1012.64
5.422,0.25,1.08,-0.21,2.65,0.96,0.04,0.04,-0.27,-0.42,1012.64
5.46,0.13,1.21,-0.22,2.65,0.96,0.04,0.04,-0.27,-0.42,1012.64
5.462,0.13,1.21,-0.22,2.65,0.96,0.04,0.04,-0.26,-0.57,1012.64
5.464,0.13,1.21,-0.22,1.76,2.16,0.01,0.04,-0.26,-0.57,1012.64
5.486,0.13,1.21,-0.22,1.76,2.16,0.01,0.04,-0.26,-0.57,1012.64
5.526,0.13,1.21,-0.22,-1.23,3.58,-0.22,0.04,-0.26,-0.57,1012.64
5.528,-0.21,1.36,-0.24,-1.23,3.58,-0.22,0.04,-0.26,-0.57,1012.64
5.529,-0.21,1.36,-0.24,-1.23,3.58,-0.22,-0.04,-0.53,-0.71,1012.64
5.53,-0.21,1.36,-0.24,-1.23,3.58,-0.22,-0.04,-0.53,-0.71,1012.63
5.538,0.12,1.73,-0.25,-1.23,3.58,-0.22,-0.04,-0.53,-0.71,1012.63
5.541,0.12,1.73,-0.25,-1.23,3.58,-0.22,-0.31,-0.77,-0.67,1012.63
5.542,0.12,1.73,-0.25,2.23,7.14,-0.42,-0.31,-0.77,-0.67,1012.63
5.578,0.41,1.43,0.01,2.23,7.14,-0.42,-0.31,-0.77,-0.67,1012.63
5.58,0.41,1.43,0.01,2.23,7.14,-0.42,-0.46,-1.06,-0.59,1012.63
5.582,0.41,1.43,0.01,5.28,4.08,1.86,-0.46,-1.06,-0.59,1012.63
5.615,0.41,1.43,0.01,5.28,4.08,1.86,-0.46,-1.06,-0.59,1012.63
5.617,0.47,1.51,-0.15,5.28,4.08,1.86,-0.46,-1.06,-0.59,1012.63
5.618,0.47,1.51,-0.15,5.28,4.08,1.86,-0.22,0.26,-1.25,1012.63
5.618,0.47,1.51,-0.15,6.22,4.85,0.23,-0.22,0.26,-1.25,1012.63
5.65,0.47,1.51,-0.15,6.22,4.85,0.23,-0.22,0.26,-1.25,1012.63
5.656,-0.44,1.45,-0.43,6.22,4.85,0.23,-0.22,0.26,-1.25,1012.63
5.657,-0.44,1.45,-0.43,6.22,4.85,0.23,0.31,1.83,-2.52,1012.63
5.657,-0.44,1.45,-0.43,-1.74,4.41,-2.28,0.31,1.83,-2.52,1012.63
5.696,-0.51,1.30,-0.41,-1.74,4.41,-2.28,0.31,1.83,-2.52,1012.63
5.699,-0.51,1.30,-0.41,-1.74,4.41,-2.28,0.46,0.32,-3.11,1012.63
5.7,-0.51,1.30,-0.41,-1.34,3.33,-1.80,0.46,0.32,-3.11,1012.63
5.711,-0.51,1.30,-0.41,-1.34,3.33,-1.80,0.46,0.32,-3.11,1012.64
5.735,-0.11,1.10,-0.28,-1.34,3.33,-1.80,0.46,0.32,-3.11,1012.64
5.738,-0.11,1.10,-0.28,-1.34,3.33,-1.80,0.12,-0.76,-3.14,1012.64
5.739,-0.11,1.10,-0.28,3.72,1.86,-0.60,0.12,-0.76,-3.14,1012.64
5.788,-0.11,1.10,-0.28,3.72,1.86,-0.60,0.12,-0.76,-3.14,1012.66
5.79,-0.28,0.76,-0.22,3.72,1.86,-0.60,0.12,-0.76,-3.14,1012.66
5.791,-0.28,0.76,-0.22,3.72,1.86,-0.60,-0.12,0.20,-3.28,1012.66
5.791,-0.28,0.76,-0.22,3.14,-0.70,0.00,-0.12,0.20,-3.28,1012.66
5.823,-0.35,0.61,-0.26,3.14,-0.70,0.00,-0.12,0.20,-3.28,1012.66
5.825,-0.35,0.61,-0.26,3.14,-0.70,0.00,-0.13,0.82,-3.02,1012.66
5.826,-0.35,0.61,-0.26,3.25,-1.43,-0.28,-0.13,0.82,-3.02,1012.66
5.831,-0.35,0.61,-0.26,3.25,-1.43,-0.28,-0.13,0.82,-3.02,1012.66
5.855,-0.29,0.66,-0.40,3.25,-1.43,-0.28,-0.13,0.82,-3.02,1012.66
5.859,-0.29,0.66,-0.40,3.25,-1.43,-0.28,-0.16,1.07,-2.36,1012.66
5.861,-0.29,0.66,-0.40,4.28,-0.34,-1.39,-0.16,1.07,-2.36,1012.66
5.9,-0.29,0.66,-0.40,4.28,-0.34,-1.39,-0.16,1.07,-2.36,1012.64
5.904,-0.26,0.61,-0.46,4.28,-0.34,-1.39,-0.16,1.07,-2.36,1012.64
5.906,-0.26,0.61,-0.46,4.28,-0.34,-1.39,-0.34,1.33,-1.61,1012.64
5.907,-0.26,0.61,-0.46,4.80,-0.39,-1.63,-0.34,1.33,-1.61,1012.64
5.937,-0.43,0.41,-0.45,4.80,-0.39,-1.63,-0.34,1.33,-1.61,1012.64
5.939,-0.43,0.41,-0.45,4.80,-0.39,-1.63,-0.69,1.31,-0.69,1012.64
5.941,-0.43,0.41,-0.45,3.14,-2.17,-1.27,-0.69,1.31,-0.69,1012.64
5.951,-0.43,0.41,-0.45,3.14,-2.17,-1.27,-0.69,1.31,-0.69,1012.63
5.975,-0.43,0.41,-0.45,2.56,-3.03,-0.91,-0.69,1.31,-0.69,1012.63
5.978,-0.45,0.34,-0.42,2.56,-3.03,-0.91,-0.69,1.31,-0.69,1012.63
5.979,-0.45,0.34,-0.42,2.56,-3.03,-0.91,-1.04,1.26,0.46,1012.63
6.01,-0.45,0.34,-0.42,2.56,-3.03,-0.91,-1.04,1.26,0.46,1012.61
6.015,-0.37,0.31,-0.32,2.56,-3.03,-0.91,-1.04,1.26,0.46,1012.61
6.016,-0.37,0.31,-0.32,2.56,-3.03,-0.91,-1.35,1.30,1.66,1012.61
6.017,-0.37,0.31,-0.32,2.73,-3.92,0.09,-1.35,1.30,1.66,1012.61
6.051,-0.34,0.42,-0.29,2.73,-3.92,0.09,-1.35,1.30,1.66,1012.61
6.052,-0.34,0.42,-0.29,2.73,-3.92,0.09,-1.51,1.70,2.55,1012.61
6.053,-0.34,0.42,-0.29,2.02,-3.54,0.31,-1.51,1.70,2.55,1012.61
6.072,-0.34,0.42,-0.29,2.02,-3.54,0.31,-1.51,1.70,2.55,1012.61
6.104,-0.40,0.54,-0.32,2.02,-3.54,0.31,-1.51,1.70,2.55,1012.61
6.108,-0.40,0.54,-0.32,2.02,-3.54,0.31,-1.60,2.05,3.02,1012.61
6.109,-0.40,0.54,-0.32,0.22,-3.14,-0.11,-1.60,2.05,3.02,1012.61
6.146,-0.48,0.60,-0.30,0.22,-3.14,-0.11,-1.60,2.05,3.02,1012.61
6.153,-0.48,0.60,-0.30,0.22,-3.14,-0.11,-1.63,1.72,3.18,1012.61
6.154,-0.48,0.60,-0.30,0.22,-3.14,-0.11,-1.63,1.72,3.18,1012.60
6.155,-0.48,0.60,-0.30,-1.83,-3.05,-0.15,-1.63,1.72,3.18,1012.60
6.177,-0.46,0.60,-0.18,-1.83,-3.05,-0.15,-1.63,1.72,3.18,1012.60
6.18,-0.46,0.60,-0.18,-1.83,-3.05,-0.15,-1.50,1.36,2.95,1012.60
6.181,-0.46,0.60,-0.18,-2.81,-3.48,0.52,-1.50,1.36,2.95,1012.60
6.201,-0.46,0.60,-0.18,-2.81,-3.48,0.52,-1.50,1.36,2.95,1012.60
6.209,-0.51,0.65,-0.36,-2.81,-3.48,0.52,-1.50,1.36,2.95,1012.60
6.21,-0.51,0.65,-0.36,-2.81,-3.48,0.52,-1.03,1.85,2.19,1012.60
6.21,-0.51,0.65,-0.36,-4.20,-3.05,-1.51,-1.03,1.85,2.19,1012.60
6.252,-0.71,0.46,-0.57,-4.20,-3.05,-1.51,-1.03,1.85,2.19,1012.60
6.255,-0.71,0.46,-0.57,-6.57,-4.95,-3.64,-1.03,1.85,2.19,1012.60
6.256,-0.71,0.46,-0.57,-6.57,-4.95,-3.64,-0.54,2.34,1.03,1012.60
6.258,-0.71,0.46,-0.57,-6.57,-4.95,-3.64,-0.54,2.34,1.03,1012.59
6.304,-1.25,-0.13,-0.59,-6.57,-4.95,-3.64,-0.54,2.34,1.03,1012.59
6.307,-1.25,-0.13,-0.59,-11.76,-10.58,-3.80,-0.54,2.34,1.03,1012.59
6.31,-1.25,-0.13,-0.59,-11.76,-10.58,-3.80,-0.13,1.78,-0.20,1012.59
6.31,-1.25,-0.13,-0.59,-11.76,-10.58,-3.80,-0.13,1.78,-0.20,1012.58
6.337,-0.66,3.01,-1.06,-11.76,-10.58,-3.80,-0.13,1.78,-0.20,1012.58
6.34,-0.66,3.01,-1.06,-11.76,-10.58,-3.80,0.96,0.03,-0.82,1012.58
6.342,-0.66,3.01,-1.06,-5.54,20.00,-7.94,0.96,0.03,-0.82,1012.58
6.385,-0.66,3.01,-1.06,9.40,2.09,2.76,0.96,0.03,-0.82,1012.58
6.388,0.83,1.19,0.06,9.40,2.09,2.76,0.96,0.03,-0.82,1012.58
6.389,0.83,1.19,0.06,9.40,2.09,2.76,-0.38,-3.04,-0.53,1012.58
6.39,0.83,1.19,0.06,9.40,2.09,2.76,-0.38,-3.04,-0.53,1012.59
6.435,-0.83,0.20,-0.06,9.40,2.09,2.76,-0.38,-3.04,-0.53,1012.59
6.438,-0.83,0.20,-0.06,9.40,2.09,2.76,0.19,2.53,-0.62,1012.59
6.443,-0.83,0.20,-0.06,-6.80,-7.42,1.68,0.19,2.53,-0.62,1012.59
6.445,-0.83,0.20,-0.06,-6.80,-7.42,1.68,0.19,2.53,-0.62,1012.58
6.447,-0.93,1.69,-0.53,-6.80,-7.42,1.68,0.19,2.53,-0.62,1012.58
6.448,-0.93,1.69,-0.53,-6.80,-7.42,1.68,0.29,1.91,-0.50,1012.58
6.449,-0.93,1.69,-0.53,-7.61,7.08,-2.65,0.29,1.91,-0.50,1012.58
6.489,-0.37,0.84,-0.23,-7.61,7.08,-2.65,0.29,1.91,-0.50,1012.58
6.49,-0.37,0.84,-0.23,-7.61,7.08,-2.65,-0.12,-0.58,0.53,1012.58
6.491,-0.37,0.84,-0.23,-7.61,7.08,-2.65,-0.12,-0.58,0.53,1012.58
6.492,-0.37,0.84,-0.23,-2.22,-1.26,0.26,-0.12,-0.58,0.53,1012.58
6.526,-0.13,0.96,-0.14,-2.22,-1.26,0.26,-0.12,-0.58,0.53,1012.58
6.527,-0.13,0.96,-0.14,-2.22,-1.26,0.26,-0.12,-0.75,0.69,1012.58
6.528,-0.13,0.96,-0.14,-0.07,-0.08,1.00,-0.12,-0.75,0.69,1012.58
6.548,-0.13,0.96,-0.14,-0.07,-0.08,1.00,-0.12,-0.75,0.69,1012.58
6.566,-0.01,0.98,-0.18,-0.07,-0.08,1.00,-0.12,-0.75,0.69,1012.58
6.568,-0.01,0.98,-0.18,-0.07,-0.08,1.00,-0.03,0.07,0.69,1012.58
6.57,-0.01,0.98,-0.18,0.77,0.06,0.56,-0.03,0.07,0.69,1012.58
6.606,-0.15,0.91,-0.28,0.77,0.06,0.56,-0.03,0.07,0.69,1012.58
6.61,-0.15,0.91,-0.28,0.77,0.06,0.56,-0.05,-0.15,0.64,1012.58
6.611,-0.15,0.91,-0.28,-0.82,-0.60,-0.35,-0.05,-0.15,0.64,1012.58
6.612,-0.15,0.91,-0.28,-0.82,-0.60,-0.35,-0.05,-0.15,0.64,1012.58
6.645,0.30,0.92,-0.20,-0.82,-0.60,-0.35,-0.05,-0.15,0.64,1012.58
6.646,0.30,0.92,-0.20,-0.82,-0.60,-0.35,-0.10,-0.76,0.56,1012.58
6.646,0.30,0.92,-0.20,3.47,-0.51,0.32,-0.10,-0.76,0.56,1012.58
6.678,0.30,0.92,-0.20,3.47,-0.51,0.32,-0.10,-0.76,0.56,1012.59
6.683,0.19,0.96,-0.14,3.47,-0.51,0.32,-0.10,-0.76,0.56,1012.59
6.685,0.19,0.96,-0.14,3.47,-0.51,0.32,-0.00,0.18,0.26,1012.59
6.686,0.19,0.96,-0.14,2.20,-0.17,0.90,-0.00,0.18,0.26,1012.59
6.723,-0.02,1.03,-0.17,2.20,-0.17,0.90,-0.00,0.18,0.26,1012.59
6.724,-0.02,1.03,-0.17,2.20,-0.17,0.90,0.09,0.33,0.06,1012.59
6.724,-0.02,1.03,-0.17,0.05,0.50,0.61,0.09,0.33,0.06,1012.59
6.727,-0.02,1.03,-0.17,0.05,0.50,0.61,0.09,0.33,0.06,1012.60
6.763,0.06,1.02,-0.23,0.05,0.50,0.61,0.09,0.33,0.06,1012.60
6.766,0.06,1.02,-0.23,0.05,0.50,0.61,0.12,-0.18,-0.10,1012.60
6.769,0.06,1.02,-0.23,0.92,0.44,0.11,0.12,-0.18,-0.10,1012.60
6.792,0.06,1.02,-0.23,0.92,0.44,0.11,0.12,-0.18,-0.10,1012.60
6.837,0.06,0.99,-0.22,0.92,0.44,0.11,0.12,-0.18,-0.10,1012.60
6.841,0.06,0.99,-0.22,0.92,0.44,0.11,0.13,-0.22,-0.30,1012.60
6.843,0.06,0.99,-0.22,1.03,0.17,0.22,0.13,-0.22,-0.30,1012.60
6.845,-0.06,1.02,-0.25,1.03,0.17,0.22,0.13,-0.22,-0.30,1012.60
6.847,-0.06,1.02,-0.25,1.03,0.17,0.22,0.11,-0.13,-0.43,1012.60
6.849,-0.06,1.02,-0.25,0.05,0.49,-0.02,0.11,-0.13,-0.43,1012.60
6.849,-0.06,1.02,-0.25,0.05,0.49,-0.02,0.11,-0.13,-0.43,1012.58
6.884,0.07,0.99,-0.24,0.05,0.49,-0.02,0.11,-0.13,-0.43,1012.58
6.886,0.07,0.99,-0.24,0.05,0.49,-0.02,0.07,-0.24,-0.54,1012.58
6.888,0.07,0.99,-0.24,1.50,0.16,0.09,0.07,-0.24,-0.54,1012.58
6.907,0.07,0.99,-0.24,1.50,0.16,0.09,0.07,-0.24,-0.54,1012.59
6.92,-0.04,0.97,-0.19,1.50,0.16,0.09,0.07,-0.24,-0.54,1012.59
6.922,-0.04,0.97,-0.19,1.50,0.16,0.09,0.07,-0.14,-0.65,1012.59
6.923,-0.04,0.97,-0.19,0.67,0.02,0.63,0.07,-0.14,-0.65,1012.59
6.96,-0.07,1.06,-0.40,0.67,0.02,0.63,0.07,-0.14,-0.65,1012.59
6.962,-0.07,1.06,-0.40,0.67,0.02,0.63,0.01,0.05,-0.73,1012.59
6.962,-0.07,1.06,-0.40,0.66,0.91,-1.39,0.01,0.05,-0.73,1012.59
6.968,-0.07,1.06,-0.40,0.66,0.91,-1.39,0.01,0.05,-0.73,1012.60
6.999,-0.21,1.24,-0.35,0.66,0.91,-1.39,0.01,0.05,-0.73,1012.60
7.003,-0.21,1.24,-0.35,0.66,0.91,-1.39,-0.21,-0.29,-0.70,1012.60
7.004,-0.21,1.24,-0.35,-0.48,2.61,-1.07,-0.21,-0.29,-0.70,1012.60
7.027,-0.21,1.24,-0.35,-0.48,2.61,-1.07,-0.21,-0.29,-0.70,1012.60
7.04,-0.24,1.56,-0.01,-0.48,2.61,-1.07,-0.21,-0.29,-0.70,1012.60
7.042,-0.24,1.56,-0.01,-0.48,2.61,-1.07,-0.41,-0.84,-0.55,1012.60
7.043,-0.24,1.56,-0.01,-0.45,5.67,2.02,-0.41,-0.84,-0.55,1012.60
7.088,0.35,1.66,0.21,-0.45,5.67,2.02,-0.41,-0.84,-0.55,1012.60
7.09,0.35,1.66,0.21,-0.45,5.67,2.02,-0.64,-0.93,-0.59,1012.60
7.091,0.35,1.66,0.21,5.57,6.59,3.80,-0.64,-0.93,-0.59,1012.60
7.092,0.35,1.66,0.21,5.57,6.59,3.80,-0.64,-0.93,-0.59,1012.59
7.119,0.67,1.55,-0.09,5.57,6.59,3.80,-0.64,-0.93,-0.59,1012.59
7.12,0.67,1.55,-0.09,5.57,6.59,3.80,-0.76,-0.16,-1.03,1012.59
7.121,0.67,1.55,-0.09,8.94,5.49,0.59,-0.76,-0.16,-1.03,1012.59
7.146,0.67,1.55,-0.09,8.94,5.49,0.59,-0.76,-0.16,-1.03,1012.59
7.16,0.76,1.19,-0.22,8.94,5.49,0.59,-0.76,-0.16,-1.03,1012.59
7.163,0.76,1.19,-0.22,8.94,5.49,0.59,-0.46,0.37,-1.30,1012.59
7.165,0.76,1.19,-0.22,10.18,1.99,-0.78,-0.46,0.37,-1.30,1012.59
7.203,0.27,1.39,-0.52,10.18,1.99,-0.78,-0.46,0.37,-1.30,1012.59
7.208,0.27,1.39,-0.52,10.18,1.99,-0.78,-0.02,3.57,-2.23,1012.59
7.209,0.27,1.39,-0.52,5.86,4.12,-3.30,-0.02,3.57,-2.23,1012.59
7.21,0.27,1.39,-0.52,5.86,4.12,-3.30,-0.02,3.57,-2.23,1012.58
7.239,-1.07,1.07,-0.79,5.86,4.12,-3.30,-0.02,3.57,-2.23,1012.58
7.242,-1.07,1.07,-0.79,5.86,4.12,-3.30,-0.17,4.48,-3.07,1012.58
7.243,-1.07,1.07,-0.79,-6.45,1.40,-5.23,-0.17,4.48,-3.07,1012.58
7.266,-1.07,1.07,-0.79,-6.45,1.40,-5.23,-0.17,4.48,-3.07,1012.58
7.281,-0.37,0.80,-0.56,-6.45,1.40,-5.23,-0.17,4.48,-3.07,1012.58
7.283,-0.37,0.80,-0.56,-6.45,1.40,-5.23,-0.86,1.32,-2.16,1012.58
7.285,-0.37,0.80,-0.56,1.04,-0.98,-3.07,-0.86,1.32,-2.16,1012.58
7.319,-0.13,0.58,-0.46,1.04,-0.98,-3.07,-0.86,1.32,-2.16,1012.58
7.323,-0.13,0.58,-0.46,1.04,-0.98,-3.07,-1.29,0.75,-1.58,1012.58
7.325,-0.13,0.58,-0.46,3.79,-2.85,-2.33,-1.29,0.75,-1.58,1012.58
7.327,-0.13,0.58,-0.46,3.79,-2.85,-2.33,-1.29,0.75,-1.58,1012.57
7.355,-0.40,0.45,-0.48,3.79,-2.85,-2.33,-1.29,0.75,-1.58,1012.57
7.357,-0.40,0.45,-0.48,3.79,-2.85,-2.33,-1.53,1.61,-1.34,1012.57
7.358,-0.40,0.45,-0.48,1.42,-3.89,-2.61,-1.53,1.61,-1.34,1012.57
7.404,-0.40,0.45,-0.48,1.42,-3.89,-2.61,-1.53,1.61,-1.34,1012.57
7.408,-0.23,0.51,-0.47,1.42,-3.89,-2.61,-1.53,1.61,-1.34,1012.57
7.409,-0.23,0.51,-0.47,1.42,-3.89,-2.61,-1.77,1.64,-0.75,1012.57
7.41,-0.23,0.51,-0.47,3.18,-3.29,-2.76,-1.77,1.64,-0.75,1012.57
7.442,-0.12,0.54,-0.55,3.18,-3.29,-2.76,-1.77,1.64,-0.75,1012.57
7.445,-0.12,0.54,-0.55,3.18,-3.29,-2.76,-1.86,2.24,-0.32,1012.57
7.446,-0.12,0.54,-0.55,4.19,-2.98,-3.59,-1.86,2.24,-0.32,1012.57
7.446,-0.12,0.54,-0.55,4.19,-2.98,-3.59,-1.86,2.24,-0.32,1012.58
7.49,-0.13,0.52,-0.65,4.19,-2.98,-3.59,-1.86,2.24,-0.32,1012.58
7.492,-0.13,0.52,-0.65,4.19,-2.98,-3.59,-1.84,3.21,0.07,1012.58
7.493,-0.13,0.52,-0.65,3.69,-3.27,-4.43,-1.84,3.21,0.07,1012.58
7.52,-0.13,0.52,-0.65,3.69,-3.27,-4.43,-1.84,3.21,0.07,1012.58
7.521,-0.24,0.49,-0.68,3.69,-3.27,-4.43,-1.84,3.21,0.07,1012.58
7.522,-0.24,0.49,-0.68,3.69,-3.27,-4.43,-1.85,3.76,0.46,1012.58
7.522,-0.24,0.49,-0.68,2.18,-3.73,-4.59,-1.85,3.76,0.46,1012.58
7.553,-0.33,0.52,-0.71,2.18,-3.73,-4.59,-1.85,3.76,0.46,1012.58
7.554,-0.33,0.52,-0.71,2.18,-3.73,-4.59,-1.96,3.62,0.97,1012.58
7.557,-0.33,0.52,-0.71,0.60,-3.68,-4.84,-1.96,3.62,0.97,1012.58
7.566,-0.33,0.52,-0.71,0.60,-3.68,-4.84,-1.96,3.62,0.97,1012.58
7.605,-0.41,0.58,-0.68,0.60,-3.68,-4.84,-1.96,3.62,0.97,1012.58
7.609,-0.41,0.58,-0.68,0.60,-3.68,-4.84,-2.13,3.11,1.62,1012.58
7.61,-0.41,0.58,-0.68,-0.96,-3.42,-4.74,-2.13,3.11,1.62,1012.58
7.649,-0.41,0.58,-0.68,-0.96,-3.42,-4.74,-2.13,3.11,1.62,1012.57
7.654,-0.45,0.61,-0.50,-0.96,-3.42,-4.74,-2.13,3.11,1.62,1012.57
7.655,-0.45,0.61,-0.50,-0.96,-3.42,-4.74,-2.17,2.55,2.40,1012.57
7.656,-0.45,0.61,-0.50,-2.38,-3.46,-3.45,-2.17,2.55,2.40,1012.57
7.683,-0.36,0.72,-0.33,-2.38,-3.46,-3.45,-2.17,2.55,2.40,1012.57
7.685,-0.36,0.72,-0.33,-2.38,-3.46,-3.45,-1.92,2.43,3.08,1012.57
7.687,-0.36,0.72,-0.33,-2.65,-2.56,-2.40,-1.92,2.43,3.08,1012.57
7.72,-0.36,0.72,-0.33,-2.65,-2.56,-2.40,-1.92,2.43,3.08,1012.58
7.722,-0.28,1.03,-0.42,-2.65,-2.56,-2.40,-1.92,2.43,3.08,1012.58
7.723,-0.28,1.03,-0.42,-2.65,-2.56,-2.40,-1.47,3.38,3.20,1012.58
7.724,-0.28,1.03,-0.42,-3.16,0.35,-3.73,-1.47,3.38,3.20,1012.58
7.745,-0.28,1.03,-0.42,-3.16,0.35,-3.73,-1.47,3.38,3.20,1012.59
7.75,-0.74,1.25,-0.74,-3.16,0.35,-3.73,-1.47,3.38,3.20,1012.59
7.751,-0.74,1.25,-0.74,-3.16,0.35,-3.73,-0.95,3.94,2.43,1012.59
7.752,-0.74,1.25,-0.74,-8.45,2.62,-7.29,-0.95,3.94,2.43,1012.59
7.79,-0.74,0.97,-0.62,-8.45,2.62,-7.29,-0.95,3.94,2.43,1012.59
7.792,-0.74,0.97,-0.62,-8.45,2.62,-7.29,-0.41,1.67,1.30,1012.59
7.792,-0.74,0.97,-0.62,-8.80,-0.13,-6.27,-0.41,1.67,1.30,1012.59
7.811,-0.74,0.97,-0.62,-8.80,-0.13,-6.27,-0.41,1.67,1.30,1012.58
7.829,-0.45,1.19,-0.44,-8.80,-0.13,-6.27,-0.41,1.67,1.30,1012.58
7.831,-0.45,1.19,-0.44,-8.80,-0.13,-6.27,0.70,0.16,-0.16,1012.58
7.832,-0.45,1.19,-0.44,-5.82,2.04,-4.12,0.70,0.16,-0.16,1012.58
7.865,-0.45,1.19,-0.44,-5.82,2.04,-4.12,0.70,0.16,-0.16,1012.56
7.871,0.44,1.70,0.74,-5.82,2.04,-4.12,0.70,0.16,-0.16,1012.56
7.874,0.44,1.70,0.74,-5.82,2.04,-4.12,0.60,-0.40,-1.15,1012.56
7.877,0.44,1.70,0.74,3.31,6.85,7.52,0.60,-0.40,-1.15,1012.56
7.912,0.07,1.08,-0.15,3.31,6.85,7.52,0.60,-0.40,-1.15,1012.56
7.913,0.07,1.08,-0.15,3.31,6.85,7.52,0.88,1.19,-0.69,1012.56
7.914,0.07,1.08,-0.15,-0.07,0.80,-0.83,0.88,1.19,-0.69,1012.56
7.926,0.07,1.08,-0.15,-0.07,0.80,-0.83,0.88,1.19,-0.69,1012.56
7.947,-1.10,0.76,-0.77,-0.07,0.80,-0.83,0.88,1.19,-0.69,1012.56
7.948,-1.10,0.76,-0.77,-0.07,0.80,-0.83,0.77,0.61,-0.69,1012.56
7.949,-1.10,0.76,-0.77,-11.11,-2.33,-6.52,0.77,0.61,-0.69,1012.56
7.985,-1.10,0.76,-0.77,-11.11,-2.33,-6.52,0.77,0.61,-0.69,1012.56
7.989,0.51,1.12,0.04,-11.11,-2.33,-6.52,0.77,0.61,-0.69,1012.56
7.991,0.51,1.12,0.04,-11.11,-2.33,-6.52,0.26,-1.47,0.11,1012.56
7.993,0.51,1.12,0.04,4.62,1.20,1.44,0.26,-1.47,0.11,1012.56
8.027,-0.36,1.09,-0.19,4.62,1.20,1.44,0.26,-1.47,0.11,1012.56
8.03,-0.36,1.09,-0.19,4.62,1.20,1.44,0.39,1.40,-0.17,1012.56
8.032,-0.36,1.09,-0.19,-3.84,0.94,-0.65,0.39,1.40,-0.17,1012.56
8.059,-0.36,1.09,-0.19,-3.84,0.94,-0.65,0.39,1.40,-0.17,1012.55
8.066,-0.41,1.00,-0.27,-3.84,0.94,-0.65,0.39,1.40,-0.17,1012.55
8.067,-0.41,1.00,-0.27,-4.32,-0.02,-1.37,0.39,1.40,-0.17,1012.55
8.071,-0.41,1.00,-0.27,-4.32,-0.02,-1.37,0.17,0.34,0.10,1012.55
8.106,-0.41,1.00,-0.27,1.08,-0.38,0.23,0.17,0.34,0.10,1012.55
8.108,0.16,0.96,-0.11,1.08,-0.38,0.23,0.17,0.34,0.10,1012.55
8.109,0.16,0.96,-0.11,1.08,-0.38,0.23,-0.01,-0.14,0.35,1012.55
8.11,0.16,0.96,-0.11,1.08,-0.38,0.23,-0.01,-0.14,0.35,1012.56
8.145,-0.06,0.90,-0.26,1.08,-0.38,0.23,-0.01,-0.14,0.35,1012.56
8.147,-0.06,0.90,-0.26,1.08,-0.38,0.23,-0.05,0.78,0.16,1012.56
8.148,-0.06,0.90,-0.26,-1.15,-0.95,-1.28,-0.05,0.78,0.16,1012.56
8.165,-0.06,0.90,-0.26,-1.15,-0.95,-1.28,-0.05,0.78,0.16,1012.56
8.186,0.02,0.84,-0.26,-1.15,-0.95,-1.28,-0.05,0.78,0.16,1012.56
8.189,0.02,0.84,-0.26,-1.15,-0.95,-1.28,-0.11,0.47,0.10,1012.56
8.191,0.02,0.84,-0.26,-0.42,-1.46,-1.33,-0.11,0.47,0.10,1012.56
8.224,0.06,0.96,-0.25,-0.42,-1.46,-1.33,-0.11,0.47,0.10,1012.56
8.225,0.06,0.96,-0.25,-0.42,-1.46,-1.33,-0.14,0.48,-0.01,1012.56
8.226,0.06,0.96,-0.25,0.00,-0.29,-1.24,-0.14,0.48,-0.01,1012.56
8.227,0.06,0.96,-0.25,0.00,-0.29,-1.24,-0.14,0.48,-0.01,1012.57
8.265,-0.17,1.04,-0.18,0.00,-0.29,-1.24,-0.14,0.48,-0.01,1012.57
8.269,-0.17,1.04,-0.18,0.00,-0.29,-1.24,-0.21,0.75,-0.03,1012.57
8.269,-0.17,1.04,-0.18,-2.24,0.49,-0.59,-0.21,0.75,-0.03,1012.57
8.285,-0.17,1.04,-0.18,-2.24,0.49,-0.59,-0.21,0.75,-0.03,1012.57
8.31,-0.03,1.17,-0.14,-2.24,0.49,-0.59,-0.21,0.75,-0.03,1012.57
8.312,-0.03,1.17,-0.14,-2.24,0.49,-0.59,-0.31,0.08,0.07,1012.57
8.313,-0.03,1.17,-0.14,-0.87,1.65,-0.35,-0.31,0.08,0.07,1012.57
8.344,0.03,1.01,-0.17,-0.87,1.65,-0.35,-0.31,0.08,0.07,1012.57
8.346,0.03,1.01,-0.17,-0.87,1.65,-0.35,-0.44,-0.31,0.11,1012.57
8.346,0.03,1.01,-0.17,-0.39,0.11,-0.76,-0.44,-0.31,0.11,1012.57
8.348,0.03,1.01,-0.17,-0.39,0.11,-0.76,-0.44,-0.31,0.11,1012.58
8.383,-0.07,0.84,-0.07,-0.39,0.11,-0.76,-0.44,-0.31,0.11,1012.58
8.384,-0.07,0.84,-0.07,-0.39,0.11,-0.76,-0.45,-0.33,0.19,1012.58
8.385,-0.07,0.84,-0.07,-1.35,-1.52,-0.00,-0.45,-0.33,0.19,1012.58
8.409,-0.07,0.84,-0.07,-1.35,-1.52,-0.00,-0.45,-0.33,0.19,1012.59
8.435,0.19,1.02,0.06,-1.35,-1.52,-0.00,-0.45,-0.33,0.19,1012.59
8.445,0.19,1.02,0.06,-1.35,-1.52,-0.00,-0.40,-0.18,0.19,1012.59
8.447,0.19,1.02,0.06,1.10,0.24,1.07,-0.40,-0.18,0.19,1012.59
8.462,0.19,1.07,-0.01,1.10,0.24,1.07,-0.40,-0.18,0.19,1012.59
8.466,0.19,1.07,-0.01,1.10,0.24,1.07,-0.41,0.30,0.00,1012.59
8.468,0.19,1.07,-0.01,1.03,0.63,0.27,-0.41,0.30,0.00,1012.59
8.471,0.19,1.07,-0.01,1.03,0.63,0.27,-0.41,0.30,0.00,1012.59
8.509,0.12,1.01,0.03,1.03,0.63,0.27,-0.41,0.30,0.00,1012.59
8.513,0.12,1.01,0.03,1.03,0.63,0.27,-0.37,0.08,-0.19,1012.59
8.514,0.12,1.01,0.03,0.45,0.12,0.50,-0.37,0.08,-0.19,1012.59
8.531,0.12,1.01,0.03,0.45,0.12,0.50,-0.37,0.08,-0.19,1012.59
8.54,-0.05,0.98,0.08,0.45,0.12,0.50,-0.37,0.08,-0.19,1012.59
8.542,-0.05,0.98,0.08,0.45,0.12,0.50,-0.22,-0.28,-0.34,1012.59
8.543,-0.05,0.98,0.08,-1.05,-0.22,0.94,-0.22,-0.28,-0.34,1012.59
8.58,-0.02,1.00,-0.04,-1.05,-0.22,0.94,-0.22,-0.28,-0.34,1012.59
8.583,-0.02,1.00,-0.04,-1.05,-0.22,0.94,-0.16,-0.45,-0.39,1012.59
8.585,-0.02,1.00,-0.04,-0.62,-0.03,-0.36,-0.16,-0.45,-0.39,1012.59
8.587,-0.02,1.00,-0.04,-0.62,-0.03,-0.36,-0.16,-0.45,-0.39,1012.57
8.621,-0.02,1.01,-0.09,-0.62,-0.03,-0.36,-0.16,-0.45,-0.39,1012.57
8.622,-0.02,1.01,-0.09,-0.62,-0.03,-0.36,-0.24,-0.28,-0.36,1012.57
8.623,-0.02,1.01,-0.09,-0.48,0.07,-0.90,-0.24,-0.28,-0.36,1012.57
8.644,-0.02,1.01,-0.09,-0.48,0.07,-0.90,-0.24,-0.28,-0.36,1012.57
8.658,-0.10,0.98,-0.08,-0.48,0.07,-0.90,-0.24,-0.28,-0.36,1012.57
8.661,-0.10,0.98,-0.08,-0.48,0.07,-0.90,-0.38,0.04,-0.33,1012.57
8.662,-0.10,0.98,-0.08,-1.07,-0.20,-0.88,-0.38,0.04,-0.33,1012.57
8.707,-0.06,0.99,0.06,-1.07,-0.20,-0.88,-0.38,0.04,-0.33,1012.57
8.712,-0.06,0.99,0.06,-1.07,-0.20,-0.88,-0.47,0.12,-0.29,1012.57
8.713,-0.06,0.99,0.06,-0.60,-0.09,0.25,-0.47,0.12,-0.29,1012.57
8.714,-0.06,0.99,0.06,-0.60,-0.09,0.25,-0.47,0.12,-0.29,1012.58
8.738,-0.13,0.98,0.19,-0.60,-0.09,0.25,-0.47,0.12,-0.29,1012.58
8.741,-0.13,0.98,0.19,-0.60,-0.09,0.25,-0.39,0.15,-0.24,1012.58
8.742,-0.13,0.98,0.19,-1.11,-0.21,1.35,-0.39,0.15,-0.24,1012.58
8.764,-0.13,0.98,0.19,-1.11,-0.21,1.35,-0.39,0.15,-0.24,1012.59
8.779,-0.19,0.99,0.21,-1.11,-0.21,1.35,-0.39,0.15,-0.24,1012.59
8.783,-0.19,0.99,0.21,-1.11,-0.21,1.35,-0.21,-0.03,-0.16,1012.59
8.785,-0.19,0.99,0.21,-1.63,-0.08,1.41,-0.21,-0.03,-0.16,1012.59
8.817,-0.15,0.98,0.19,-1.63,-0.08,1.41,-0.21,-0.03,-0.16,1012.59
8.819,-0.15,0.98,0.19,-1.63,-0.08,1.41,-0.03,-0.39,-0.08,1012.59
8.82,-0.15,0.98,0.19,-1.18,-0.19,1.22,-0.03,-0.39,-0.08,1012.59
8.822,-0.15,0.98,0.19,-1.18,-0.19,1.22,-0.03,-0.39,-0.08,1012.59
8.857,-0.01,1.03,0.01,-1.18,-0.19,1.22,-0.03,-0.39,-0.08,1012.59
8.858,-0.01,1.03,0.01,-1.18,-0.19,1.22,0.07,-0.45,-0.06,1012.59
8.859,-0.01,1.03,0.01,0.21,0.24,-0.48,0.07,-0.45,-0.06,1012.59
8.884,-0.01,1.03,0.01,0.21,0.24,-0.48,0.07,-0.45,-0.06,1012.59
8.91,-0.01,0.98,-0.02,0.21,0.24,-0.48,0.07,-0.45,-0.06,1012.59
8.911,-0.01,0.98,-0.02,0.21,0.24,-0.48,0.04,-0.30,-0.11,1012.59
8.912,-0.01,0.98,-0.02,0.23,-0.17,-0.82,0.04,-0.30,-0.11,1012.59
8.945,-0.07,1.01,0.05,0.23,-0.17,-0.82,0.04,-0.30,-0.11,1012.59
8.947,-0.07,1.01,0.05,0.23,-0.17,-0.82,-0.03,-0.21,-0.16,1012.59
8.948,-0.07,1.01,0.05,-0.32,0.06,-0.13,-0.03,-0.21,-0.16,1012.59
8.949,-0.07,1.01,0.05,-0.32,0.06,-0.13,-0.03,-0.21,-0.16,1012.59
8.976,-0.12,0.99,0.11,-0.32,0.06,-0.13,-0.03,-0.21,-0.16,1012.59
8.978,-0.12,0.99,0.11,-0.32,0.06,-0.13,-0.06,-0.20,-0.16,1012.59
8.979,-0.12,0.99,0.11,-0.78,-0.11,0.49,-0.06,-0.20,-0.16,1012.59
9.003,-0.12,0.99,0.11,-0.78,-0.11,0.49,-0.06,-0.20,-0.16,1012.60
9.022,-0.17,0.98,0.14,-0.78,-0.11,0.49,-0.06,-0.20,-0.16,1012.60
9.023,-0.17,0.98,0.14,-0.78,-0.11,0.49,-0.01,-0.11,-0.13,1012.60
9.024,-0.17,0.98,0.14,-1.14,-0.19,0.71,-0.01,-0.11,-0.13,1012.60
9.06,-0.18,0.99,0.08,-1.14,-0.19,0.71,-0.01,-0.11,-0.13,1012.60
9.062,-0.18,0.99,0.08,-1.14,-0.19,0.71,0.04,-0.03,-0.06,1012.60
9.063,-0.18,0.99,0.08,-1.21,-0.13,0.10,0.04,-0.03,-0.06,1012.60
9.064,-0.18,0.99,0.08,-1.21,-0.13,0.10,0.04,-0.03,-0.06,1012.59
9.098,-0.11,1.00,0.03,-1.21,-0.13,0.10,0.04,-0.03,-0.06,1012.59
9.1,-0.11,1.00,0.03,-1.21,-0.13,0.10,0.04,-0.08,0.02,1012.59
9.101,-0.11,1.00,0.03,-0.57,0.03,-0.32,0.04,-0.08,0.02,1012.59
9.124,-0.11,1.00,0.03,-0.57,0.03,-0.32,0.04,-0.08,0.02,1012.59
9.133,-0.06,1.00,0.05,-0.57,0.03,-0.32,0.04,-0.08,0.02,1012.59
9.133,-0.06,1.00,0.05,-0.57,0.03,-0.32,-0.00,-0.13,0.03,1012.59
9.134,-0.06,1.00,0.05,-0.04,-0.03,-0.10,-0.00,-0.13,0.03,1012.59
9.173,-0.09,1.00,0.07,-0.04,-0.03,-0.10,-0.00,-0.13,0.03,1012.59
9.177,-0.09,1.00,0.07,-0.04,-0.03,-0.10,-0.00,0.03,0.01,1012.59
9.179,-0.09,1.00,0.07,-0.37,0.01,0.02,-0.00,0.03,0.01,1012.59
9.183,-0.09,1.00,0.07,-0.37,0.01,0.02,-0.00,0.03,0.01,1012.59
9.226,-0.10,0.99,0.07,-0.37,0.01,0.02,-0.00,0.03,0.01,1012.59
9.229,-0.10,0.99,0.07,-0.37,0.01,0.02,0.00,0.03,0.01,1012.59
9.229,-0.10,0.99,0.07,-0.48,-0.05,0.07,0.00,0.03,0.01,1012.59
9.271,-0.10,0.99,0.07,-0.48,-0.05,0.07,0.00,0.03,0.01,1012.59
9.273,-0.10,0.99,0.08,-0.48,-0.05,0.07,0.00,0.03,0.01,1012.59
9.274,-0.10,0.99,0.08,-0.48,-0.05,0.07,0.01,0.01,0.00,1012.59
9.274,-0.10,0.99,0.08,-0.42,-0.08,0.18,0.01,0.01,0.00,1012.59
9.291,-0.08,0.99,0.05,-0.42,-0.08,0.18,0.01,0.01,0.00,1012.59
9.292,-0.08,0.99,0.05,-0.42,-0.08,0.18,0.02,0.07,-0.01,1012.59
9.293,-0.08,0.99,0.05,-0.28,-0.06,-0.07,0.02,0.07,-0.01,1012.59
9.301,-0.08,0.99,0.05,-0.28,-0.06,-0.07,0.02,0.07,-0.01,1012.59
9.33,-0.11,1.00,0.04,-0.28,-0.06,-0.07,0.02,0.07,-0.01,1012.59
9.331,-0.11,1.00,0.04,-0.28,-0.06,-0.07,0.02,0.18,-0.03,1012.59
9.331,-0.11,1.00,0.04,-0.50,-0.02,-0.16,0.02,0.18,-0.03,1012.59
