time,gFx,gFy,gFz,ax,ay,az,wx,wy,wz,P
0.01,-0.14,1.00,-0.01,-0.09,0.01,-0.08,-0.08,0.21,-0.02,1012.85
0.011,-0.14,1.00,-0.01,-0.09,0.01,-0.08,-0.06,0.15,-0.04,1012.85
0.012,-0.14,1.00,-0.01,-0.12,0.02,-0.10,-0.06,0.15,-0.04,1012.85
0.043,-0.14,1.00,-0.01,-0.12,0.02,-0.10,-0.06,0.15,-0.04,1012.85
0.05,-0.16,0.99,0.02,-0.12,0.02,-0.10,-0.06,0.15,-0.04,1012.85
0.051,-0.16,0.99,0.02,-0.12,0.02,-0.10,-0.06,0.12,-0.01,1012.85
0.051,-0.16,0.99,0.02,-0.35,-0.09,0.16,-0.06,0.12,-0.01,1012.85
0.09,-0.11,1.00,0.00,-0.35,-0.09,0.16,-0.06,0.12,-0.01,1012.85
0.091,-0.11,1.00,0.00,-0.35,-0.09,0.16,-0.06,0.12,-0.00,1012.85
0.092,-0.11,1.00,0.00,0.17,0.02,-0.07,-0.06,0.12,-0.00,1012.85
0.1,-0.11,1.00,0.00,0.17,0.02,-0.07,-0.06,0.12,-0.00,1012.85
0.142,-0.15,1.00,-0.01,0.17,0.02,-0.07,-0.06,0.12,-0.00,1012.85
0.153,-0.15,1.00,-0.01,0.17,0.02,-0.07,-0.06,0.19,-0.02,1012.85
0.157,-0.15,1.00,-0.01,-0.25,0.06,-0.22,-0.06,0.19,-0.02,1012.85
0.187,-0.15,1.00,-0.01,-0.25,0.06,-0.22,-0.06,0.19,-0.02,1012.85
0.188,-0.13,0.99,0.01,-0.25,0.06,-0.22,-0.06,0.19,-0.02,1012.85
0.189,-0.13,0.99,0.01,-0.25,0.06,-0.22,-0.09,0.16,-0.01,1012.85
0.189,-0.13,0.99,0.01,-0.04,-0.10,-0.07,-0.09,0.16,-0.01,1012.85
0.209,-0.16,1.01,-0.02,-0.04,-0.10,-0.07,-0.09,0.16,-0.01,1012.85
0.21,-0.16,1.01,-0.02,-0.04,-0.10,-0.07,-0.13,0.26,0.02,1012.85
0.211,-0.16,1.01,-0.02,-0.30,0.16,-0.35,-0.13,0.26,0.02,1012.85
0.22,-0.16,1.01,-0.02,-0.30,0.16,-0.35,-0.13,0.26,0.02,1012.85
0.25,-0.18,1.01,-0.02,-0.30,0.16,-0.35,-0.13,0.26,0.02,1012.85
0.251,-0.18,1.01,-0.02,-0.30,0.16,-0.35,-0.22,0.47,0.07,1012.85
0.252,-0.18,1.01,-0.02,-0.47,0.12,-0.44,-0.22,0.47,0.07,1012.85
0.28,-0.18,1.01,-0.02,-0.47,0.12,-0.44,-0.22,0.47,0.07,1012.84
0.287,-0.30,1.00,0.03,-0.47,0.12,-0.44,-0.22,0.47,0.07,1012.84
0.288,-0.30,1.00,0.03,-0.47,0.12,-0.44,-0.28,0.49,0.23,1012.84
0.288,-0.30,1.00,0.03,-1.71,0.01,-0.04,-0.28,0.49,0.23,1012.84
0.335,-0.16,0.93,0.11,-1.71,0.01,-0.04,-0.28,0.49,0.23,1012.84
0.335,-0.16,0.93,0.11,-1.71,0.01,-0.04,-0.22,0.15,0.38,1012.84
0.336,-0.16,0.93,0.11,-0.50,-0.66,0.66,-0.22,0.15,0.38,1012.84
0.341,-0.16,0.93,0.11,-0.50,-0.66,0.66,-0.22,0.15,0.38,1012.84
0.365,-0.08,1.04,0.15,-0.50,-0.66,0.66,-0.22,0.15,0.38,1012.84
0.365,-0.08,1.04,0.15,-0.50,-0.66,0.66,-0.02,0.34,0.41,1012.84
0.365,-0.08,1.04,0.15,0.14,0.35,1.05,-0.02,0.34,0.41,1012.84
0.4,-0.08,1.04,0.15,0.14,0.35,1.05,-0.02,0.34,0.41,1012.84
0.407,-0.12,1.03,0.18,0.14,0.35,1.05,-0.02,0.34,0.41,1012.84
0.407,-0.12,1.03,0.18,0.14,0.35,1.05,0.21,0.25,0.47,1012.84
0.409,-0.12,1.03,0.18,-0.46,0.22,1.39,0.21,0.25,0.47,1012.84
0.452,-0.07,1.10,0.14,-0.46,0.22,1.39,0.21,0.25,0.47,1012.84
0.453,-0.07,1.10,0.14,-0.46,0.22,1.39,0.38,-0.33,0.47,1012.84
0.454,-0.07,1.10,0.14,-0.18,0.92,1.12,0.38,-0.33,0.47,1012.84
0.461,-0.07,1.10,0.14,-0.18,0.92,1.12,0.38,-0.33,0.47,1012.85
0.485,0.17,1.37,0.00,-0.18,0.92,1.12,0.38,-0.33,0.47,1012.85
0.486,0.17,1.37,0.00,-0.18,0.92,1.12,0.42,-0.71,0.38,1012.85
0.487,0.17,1.37,0.00,2.02,3.49,-0.04,0.42,-0.71,0.38,1012.85
0.519,0.17,1.37,0.00,2.02,3.49,-0.04,0.42,-0.71,0.38,1012.85
0.531,0.67,1.46,0.05,2.02,3.49,-0.04,0.42,-0.71,0.38,1012.85
0.532,0.67,1.46,0.05,2.02,3.49,-0.04,0.35,-0.82,0.07,1012.85
0.532,0.67,1.46,0.05,6.76,4.29,0.54,0.35,-0.82,0.07,1012.85
0.565,0.27,1.68,-0.03,6.76,4.29,0.54,0.35,-0.82,0.07,1012.85
0.566,0.27,1.68,-0.03,6.76,4.29,0.54,0.77,-0.17,-1.25,1012.85
0.567,0.27,1.68,-0.03,3.32,6.38,0.09,0.77,-0.17,-1.25,1012.85
0.579,0.27,1.68,-0.03,3.32,6.38,0.09,0.77,-0.17,-1.25,1012.84
0.605,-0.45,1.63,-0.18,3.32,6.38,0.09,0.77,-0.17,-1.25,1012.84
0.607,-0.45,1.63,-0.18,3.32,6.38,0.09,1.29,-0.55,-2.56,1012.84
0.608,-0.45,1.63,-0.18,-2.70,5.98,-0.88,1.29,-0.55,-2.56,1012.84
0.639,-0.45,1.63,-0.18,-2.70,5.98,-0.88,1.29,-0.55,-2.56,1012.83
0.648,0.18,1.39,-0.04,-2.70,5.98,-0.88,1.29,-0.55,-2.56,1012.83
0.65,0.18,1.39,-0.04,-2.70,5.98,-0.88,1.15,-1.83,-2.53,1012.83
0.651,0.18,1.39,-0.04,4.53,3.80,0.71,1.15,-1.83,-2.53,1012.83
0.684,0.16,0.89,0.14,4.53,3.80,0.71,1.15,-1.83,-2.53,1012.83
0.685,0.16,0.89,0.14,4.53,3.80,0.71,0.82,-0.80,-2.17,1012.83
0.686,0.16,0.89,0.14,5.06,-0.74,2.68,0.82,-0.80,-2.17,1012.83
0.699,0.16,0.89,0.14,5.06,-0.74,2.68,0.82,-0.80,-2.17,1012.82
0.723,-0.02,0.67,0.05,5.06,-0.74,2.68,0.82,-0.80,-2.17,1012.82
0.726,-0.02,0.67,0.05,5.06,-0.74,2.68,0.80,-0.11,-1.03,1012.82
0.728,-0.02,0.67,0.05,3.63,-2.67,2.03,0.80,-0.11,-1.03,1012.82
0.762,-0.02,0.67,0.05,3.63,-2.67,2.03,0.80,-0.11,-1.03,1012.83
0.771,0.18,0.50,0.03,3.63,-2.67,2.03,0.80,-0.11,-1.03,1012.83
0.771,0.18,0.50,0.03,3.63,-2.67,2.03,0.55,-0.02,0.38,1012.83
0.772,0.18,0.50,0.03,5.33,-4.30,1.98,0.55,-0.02,0.38,1012.83
0.802,0.02,0.39,-0.06,5.33,-4.30,1.98,0.55,-0.02,0.38,1012.83
0.803,0.02,0.39,-0.06,5.33,-4.30,1.98,0.28,0.72,1.34,1012.83
0.804,0.02,0.39,-0.06,3.17,-5.43,1.29,0.28,0.72,1.34,1012.83
0.82,0.02,0.39,-0.06,3.17,-5.43,1.29,0.28,0.72,1.34,1012.83
0.842,-0.25,0.39,-0.21,3.17,-5.43,1.29,0.28,0.72,1.34,1012.83
0.844,-0.25,0.39,-0.21,3.17,-5.43,1.29,0.01,0.95,1.96,1012.83
0.845,-0.25,0.39,-0.21,-0.26,-5.53,-0.02,0.01,0.95,1.96,1012.83
0.882,-0.25,0.39,-0.21,-0.26,-5.53,-0.02,0.01,0.95,1.96,1012.83
0.886,-0.44,0.40,-0.29,-0.26,-5.53,-0.02,0.01,0.95,1.96,1012.83
0.889,-0.44,0.40,-0.29,-2.90,-5.49,-0.92,0.01,0.95,1.96,1012.83
0.891,-0.44,0.40,-0.29,-2.90,-5.49,-0.92,-0.23,0.58,2.05,1012.83
0.922,-0.59,0.54,-0.35,-2.90,-5.49,-0.92,-0.23,0.58,2.05,1012.83
0.924,-0.59,0.54,-0.35,-2.90,-5.49,-0.92,-0.28,0.42,1.40,1012.83
0.926,-0.59,0.54,-0.35,-4.86,-4.15,-1.53,-0.28,0.42,1.40,1012.83
0.941,-0.59,0.54,-0.35,-4.86,-4.15,-1.53,-0.28,0.42,1.40,1012.82
0.961,-0.69,0.50,-0.39,-4.86,-4.15,-1.53,-0.28,0.42,1.40,1012.82
0.963,-0.69,0.50,-0.39,-4.86,-4.15,-1.53,-0.13,0.57,0.14,1012.82
0.965,-0.69,0.50,-0.39,-5.75,-4.51,-1.92,-0.13,0.57,0.14,1012.82
0.999,-0.73,0.57,-0.47,-5.75,-4.51,-1.92,-0.13,0.57,0.14,1012.82
1.003,-0.73,0.57,-0.47,-5.75,-4.51,-1.92,0.32,0.93,-0.89,1012.82
1.005,-0.73,0.57,-0.47,-5.75,-4.51,-1.92,0.32,0.93,-0.89,1012.81
1.007,-0.73,0.57,-0.47,-5.85,-3.67,-2.52,0.32,0.93,-0.89,1012.81
1.048,-0.20,2.67,-0.76,-5.85,-3.67,-2.52,0.32,0.93,-0.89,1012.81
1.051,-0.20,2.67,-0.76,-5.85,-3.67,-2.52,0.80,0.85,-1.56,1012.81
1.053,-0.20,2.67,-0.76,-0.13,16.73,-4.90,0.80,0.85,-1.56,1012.81
1.059,-0.20,2.67,-0.76,-0.13,16.73,-4.90,0.80,0.85,-1.56,1012.80
1.09,-0.23,0.27,-0.08,-0.13,16.73,-4.90,0.80,0.85,-1.56,1012.80
1.092,-0.23,0.27,-0.08,-0.13,16.73,-4.90,-0.31,0.27,-0.67,1012.80
1.092,-0.23,0.27,-0.08,-0.23,-6.61,1.60,-0.31,0.27,-0.67,1012.80
1.119,-1.10,0.73,-0.30,-0.23,-6.61,1.60,-0.31,0.27,-0.67,1012.80
1.122,-1.10,0.73,-0.30,-0.23,-6.61,1.60,0.25,1.56,-0.67,1012.80
1.124,-1.10,0.73,-0.30,-8.47,-1.98,-0.32,0.25,1.56,-0.67,1012.80
1.127,-1.10,0.73,-0.30,-8.47,-1.98,-0.32,0.25,1.56,-0.67,1012.80
1.158,-0.30,1.37,-0.43,-8.47,-1.98,-0.32,0.25,1.56,-0.67,1012.80
1.16,-0.30,1.37,-0.43,-8.47,-1.98,-0.32,0.26,-0.06,0.13,1012.80
1.161,-0.30,1.37,-0.43,-0.66,4.23,-1.42,0.26,-0.06,0.13,1012.80
1.189,-0.30,1.37,-0.43,-0.66,4.23,-1.42,0.26,-0.06,0.13,1012.80
1.201,-0.40,0.92,-0.39,-0.66,4.23,-1.42,0.26,-0.06,0.13,1012.80
1.202,-0.40,0.92,-0.39,-0.66,4.23,-1.42,0.03,0.00,0.51,1012.80
1.203,-0.40,0.92,-0.39,-1.79,-0.25,-1.00,0.03,0.00,0.51,1012.80
1.241,-0.34,0.94,-0.42,-1.79,-0.25,-1.00,0.03,0.00,0.51,1012.80
1.244,-0.34,0.94,-0.42,-1.79,-0.25,-1.00,-0.17,0.12,0.69,1012.80
1.245,-0.34,0.94,-0.42,-1.79,-0.25,-1.00,-0.17,0.12,0.69,1012.80
1.246,-0.34,0.94,-0.42,-1.49,-0.10,-1.37,-0.17,0.12,0.69,1012.80
1.289,-0.10,0.98,-0.35,-1.49,-0.10,-1.37,-0.17,0.12,0.69,1012.80
1.292,-0.10,0.98,-0.35,-1.49,-0.10,-1.37,-0.35,-0.38,0.78,1012.80
1.293,-0.10,0.98,-0.35,0.62,0.19,-0.78,-0.35,-0.38,0.78,1012.80
1.299,-0.10,0.98,-0.35,0.62,0.19,-0.78,-0.35,-0.38,0.78,1012.79
1.317,0.02,0.91,-0.21,0.62,0.19,-0.78,-0.35,-0.38,0.78,1012.79
1.32,0.02,0.91,-0.21,0.62,0.19,-0.78,-0.41,-0.32,0.76,1012.79
1.32,0.02,0.91,-0.21,1.51,-0.60,0.38,-0.41,-0.32,0.76,1012.79
1.359,-0.04,0.92,-0.17,1.51,-0.60,0.38,-0.41,-0.32,0.76,1012.79
1.366,-0.04,0.92,-0.17,1.51,-0.60,0.38,-0.31,-0.01,0.58,1012.79
1.369,-0.04,0.92,-0.17,0.74,-0.47,0.67,-0.31,-0.01,0.58,1012.79
1.37,-0.04,0.92,-0.17,0.74,-0.47,0.67,-0.31,-0.01,0.58,1012.79
1.397,0.12,0.91,-0.07,0.74,-0.47,0.67,-0.31,-0.01,0.58,1012.79
1.399,0.12,0.91,-0.07,0.74,-0.47,0.67,-0.17,-0.20,0.40,1012.79
1.4,0.12,0.91,-0.07,2.05,-0.58,1.48,-0.17,-0.20,0.40,1012.79
1.419,0.12,0.91,-0.07,2.05,-0.58,1.48,-0.17,-0.20,0.40,1012.81
1.435,0.21,0.98,-0.14,2.05,-0.58,1.48,-0.17,-0.20,0.40,1012.81
1.438,0.21,0.98,-0.14,2.05,-0.58,1.48,0.02,0.00,0.07,1012.81
1.44,0.21,0.98,-0.14,2.92,0.02,0.87,0.02,0.00,0.07,1012.81
1.475,0.15,1.12,-0.29,2.92,0.02,0.87,0.02,0.00,0.07,1012.81
1.478,0.15,1.12,-0.29,2.92,0.02,0.87,0.12,0.18,-0.24,1012.81
1.479,0.15,1.12,-0.29,2.37,1.47,-0.56,0.12,0.18,-0.24,1012.81
1.48,0.15,1.12,-0.29,2.37,1.47,-0.56,0.12,0.18,-0.24,1012.81
1.516,0.15,1.12,-0.29,-0.22,2.15,-1.21,0.12,0.18,-0.24,1012.81
1.518,-0.13,1.20,-0.36,-0.22,2.15,-1.21,0.12,0.18,-0.24,1012.81
1.519,-0.13,1.20,-0.36,-0.22,2.15,-1.21,-0.00,-0.22,-0.41,1012.81
1.539,-0.13,1.20,-0.36,-0.22,2.15,-1.21,-0.00,-0.22,-0.41,1012.80
1.568,-0.20,1.33,-0.43,-0.22,2.15,-1.21,-0.00,-0.22,-0.41,1012.80
1.571,-0.20,1.33,-0.43,-0.22,2.15,-1.21,-0.26,-0.60,-0.31,1012.80
1.572,-0.20,1.33,-0.43,-0.69,3.35,-2.01,-0.26,-0.60,-0.31,1012.80
1.597,-0.39,1.65,-0.16,-0.69,3.35,-2.01,-0.26,-0.60,-0.31,1012.80
1.599,-0.39,1.65,-0.16,-0.69,3.35,-2.01,-0.47,-0.90,-0.01,1012.80
1.6,-0.39,1.65,-0.16,-2.44,6.38,0.42,-0.47,-0.90,-0.01,1012.80
1.601,-0.39,1.65,-0.16,-2.44,6.38,0.42,-0.47,-0.90,-0.01,1012.79
1.64,0.67,1.60,0.15,-2.44,6.38,0.42,-0.47,-0.90,-0.01,1012.79
1.644,0.67,1.60,0.15,-2.44,6.38,0.42,-0.70,-1.03,0.25,1012.79
1.646,0.67,1.60,0.15,7.77,5.76,3.06,-0.70,-1.03,0.25,1012.79
1.682,0.67,1.60,0.15,7.77,5.76,3.06,-0.70,-1.03,0.25,1012.80
1.687,1.15,1.46,-0.02,7.77,5.76,3.06,-0.70,-1.03,0.25,1012.80
1.703,1.15,1.46,-0.02,7.77,5.76,3.06,-0.21,0.43,-0.93,1012.80
1.703,1.15,1.46,-0.02,12.63,4.29,1.31,-0.21,0.43,-0.93,1012.80
1.712,-0.86,1.88,-0.52,12.63,4.29,1.31,-0.21,0.43,-0.93,1012.80
1.713,-0.86,1.88,-0.52,12.63,4.29,1.31,1.28,1.13,-3.51,1012.80
1.714,-0.86,1.88,-0.52,-5.74,8.66,-3.01,1.28,1.13,-3.51,1012.80
1.716,-0.86,1.88,-0.52,-5.74,8.66,-3.01,1.28,1.13,-3.51,1012.81
1.765,-0.71,1.46,-0.46,-5.74,8.66,-3.01,1.28,1.13,-3.51,1012.81
1.768,-0.71,1.46,-0.46,-5.74,8.66,-3.01,1.36,-1.64,-3.19,1012.81
1.77,-0.71,1.46,-0.46,-2.89,5.03,-2.06,1.36,-1.64,-3.19,1012.81
1.777,-0.71,1.46,-0.46,-2.89,5.03,-2.06,1.36,-1.64,-3.19,1012.81
1.811,-0.06,1.21,-0.29,-2.89,5.03,-2.06,1.36,-1.64,-3.19,1012.81
1.812,-0.06,1.21,-0.29,-2.89,5.03,-2.06,0.85,-2.75,-2.54,1012.81
1.813,-0.06,1.21,-0.29,4.61,3.07,-0.56,0.85,-2.75,-2.54,1012.81
1.84,-0.35,0.78,-0.09,4.61,3.07,-0.56,0.85,-2.75,-2.54,1012.81
1.841,-0.35,0.78,-0.09,4.61,3.07,-0.56,0.64,-1.12,-2.51,1012.81
1.842,-0.35,0.78,-0.09,2.62,-0.55,1.26,0.64,-1.12,-2.51,1012.81
1.842,-0.35,0.78,-0.09,2.62,-0.55,1.26,0.64,-1.12,-2.51,1012.81
1.88,-0.25,0.41,-0.07,2.62,-0.55,1.26,0.64,-1.12,-2.51,1012.81
1.881,-0.25,0.41,-0.07,2.62,-0.55,1.26,0.64,0.06,-1.74,1012.81
1.882,-0.25,0.41,-0.07,4.14,-3.60,1.73,0.64,0.06,-1.74,1012.81
1.899,-0.25,0.41,-0.07,4.14,-3.60,1.73,0.64,0.06,-1.74,1012.81
1.908,-0.00,0.33,-0.17,4.14,-3.60,1.73,0.64,0.06,-1.74,1012.81
1.909,-0.00,0.33,-0.17,4.14,-3.60,1.73,0.53,1.31,-0.62,1012.81
1.909,-0.00,0.33,-0.17,6.46,-4.09,1.23,0.53,1.31,-0.62,1012.81
1.948,-0.03,0.07,-0.14,6.46,-4.09,1.23,0.53,1.31,-0.62,1012.81
1.95,-0.03,0.07,-0.14,6.46,-4.09,1.23,0.08,1.93,0.60,1012.81
1.952,-0.03,0.07,-0.14,5.65,-6.69,1.91,0.08,1.93,0.60,1012.81
1.956,-0.03,0.07,-0.14,5.65,-6.69,1.91,0.08,1.93,0.60,1012.81
1.988,-0.34,-0.03,-0.12,5.65,-6.69,1.91,0.08,1.93,0.60,1012.81
1.991,-0.34,-0.03,-0.12,5.65,-6.69,1.91,-0.26,1.51,1.86,1012.81
1.993,-0.34,-0.03,-0.12,1.84,-7.96,2.36,-0.26,1.51,1.86,1012.81
2.02,-0.34,-0.03,-0.12,1.84,-7.96,2.36,-0.26,1.51,1.86,1012.81
2.028,-0.27,-0.02,-0.04,1.84,-7.96,2.36,-0.26,1.51,1.86,1012.81
2.031,-0.27,-0.02,-0.04,1.84,-7.96,2.36,-0.47,0.59,2.96,1012.81
2.033,-0.27,-0.02,-0.04,1.45,-8.36,3.11,-0.47,0.59,2.96,1012.81
2.068,-0.42,0.25,-0.28,1.45,-8.36,3.11,-0.47,0.59,2.96,1012.81
2.071,-0.42,0.25,-0.28,1.45,-8.36,3.11,-0.50,0.95,3.24,1012.81
2.074,-0.42,0.25,-0.28,-1.21,-6.08,0.65,-0.50,0.95,3.24,1012.81
2.076,-0.42,0.25,-0.28,-1.21,-6.08,0.65,-0.50,0.95,3.24,1012.79
2.106,-0.98,0.54,-0.56,-1.21,-6.08,0.65,-0.50,0.95,3.24,1012.79
2.107,-0.98,0.54,-0.56,-1.21,-6.08,0.65,-0.63,1.48,2.39,1012.79
2.108,-0.98,0.54,-0.56,-7.55,-3.53,-2.15,-0.63,1.48,2.39,1012.79
2.143,-0.98,0.54,-0.56,-7.55,-3.53,-2.15,-0.63,1.48,2.39,1012.77
2.193,-1.40,0.15,-0.65,-7.55,-3.53,-2.15,-0.63,1.48,2.39,1012.77
2.197,-1.40,0.15,-0.65,-7.55,-3.53,-2.15,-0.44,0.80,0.95,1012.77
2.199,-1.40,0.15,-0.65,-11.94,-7.33,-3.08,-0.44,0.80,0.95,1012.77
2.202,-1.02,2.29,-0.58,-11.94,-7.33,-3.08,-0.44,0.80,0.95,1012.77
2.205,-1.02,2.29,-0.58,-11.94,-7.33,-3.08,0.63,0.26,-1.22,1012.77
2.207,-1.02,2.29,-0.58,-7.64,13.59,-2.12,0.63,0.26,-1.22,1012.77
2.209,-1.02,2.29,-0.58,-7.64,13.59,-2.12,0.63,0.26,-1.22,1012.77
2.226,1.00,0.94,-0.47,-7.64,13.59,-2.12,0.63,0.26,-1.22,1012.77
2.227,1.00,0.94,-0.47,-7.64,13.59,-2.12,-0.16,-0.95,-0.35,1012.77
2.228,1.00,0.94,-0.47,12.16,0.34,-1.12,-0.16,-0.95,-0.35,1012.77
2.258,1.00,0.94,-0.47,12.16,0.34,-1.12,-0.16,-0.95,-0.35,1012.78
2.277,-1.55,0.42,-0.38,12.16,0.34,-1.12,-0.16,-0.95,-0.35,1012.78
2.279,-1.55,0.42,-0.38,12.16,0.34,-1.12,-0.06,2.06,-0.62,1012.78
2.28,-1.55,0.42,-0.38,-12.62,-4.63,-0.09,-0.06,2.06,-0.62,1012.78
2.304,-0.36,1.28,-0.63,-12.62,-4.63,-0.09,-0.06,2.06,-0.62,1012.78
2.305,-0.36,1.28,-0.63,-12.62,-4.63,-0.09,-0.08,0.00,0.20,1012.78
2.305,-0.36,1.28,-0.63,-1.06,3.73,-2.53,-0.08,0.00,0.20,1012.78
2.316,-0.36,1.28,-0.63,-1.06,3.73,-2.53,-0.08,0.00,0.20,1012.79
2.344,-0.11,0.97,-0.31,-1.06,3.73,-2.53,-0.08,0.00,0.20,1012.79
2.345,-0.11,0.97,-0.31,-1.06,3.73,-2.53,-0.35,0.29,0.39,1012.79
2.346,-0.11,0.97,-0.31,1.16,0.60,0.48,-0.35,0.29,0.39,1012.79
2.386,-0.11,0.97,-0.31,1.16,0.60,0.48,-0.35,0.29,0.39,1012.80
2.387,-0.60,0.94,-0.27,1.16,0.60,0.48,-0.35,0.29,0.39,1012.80
2.387,-0.60,0.94,-0.27,1.16,0.60,0.48,-0.25,0.62,0.43,1012.80
2.388,-0.60,0.94,-0.27,-3.81,0.18,0.90,-0.25,0.62,0.43,1012.80
2.423,-0.24,0.98,-0.39,-3.81,0.18,0.90,-0.25,0.62,0.43,1012.80
2.427,-0.24,0.98,-0.39,-3.81,0.18,0.90,-0.16,-0.46,0.73,1012.80
2.429,-0.24,0.98,-0.39,-0.43,0.49,-0.43,-0.16,-0.46,0.73,1012.80
2.436,-0.24,0.98,-0.39,-0.43,0.49,-0.43,-0.16,-0.46,0.73,1012.80
2.462,-0.14,0.87,-0.42,-0.43,0.49,-0.43,-0.16,-0.46,0.73,1012.80
2.464,-0.14,0.87,-0.42,-0.43,0.49,-0.43,-0.23,-0.64,0.78,1012.80
2.466,-0.14,0.87,-0.42,0.31,-0.61,-0.77,-0.23,-0.64,0.78,1012.80
2.496,-0.14,0.87,-0.42,0.31,-0.61,-0.77,-0.23,-0.64,0.78,1012.79
2.502,-0.01,0.84,-0.38,0.31,-0.61,-0.77,-0.23,-0.64,0.78,1012.79
2.503,-0.01,0.84,-0.38,0.31,-0.61,-0.77,-0.33,-0.51,0.71,1012.79
2.504,-0.01,0.84,-0.38,1.37,-1.04,-0.56,-0.33,-0.51,0.71,1012.79
2.541,0.09,0.88,-0.22,1.37,-1.04,-0.56,-0.33,-0.51,0.71,1012.79
2.543,0.09,0.88,-0.22,1.37,-1.04,-0.56,-0.30,-0.43,0.59,1012.79
2.544,0.09,0.88,-0.22,2.13,-0.63,0.83,-0.30,-0.43,0.59,1012.79
2.57,0.09,0.88,-0.22,2.13,-0.63,0.83,-0.30,-0.43,0.59,1012.78
2.584,0.17,0.94,-0.17,2.13,-0.63,0.83,-0.30,-0.43,0.59,1012.78
2.586,0.17,0.94,-0.17,2.13,-0.63,0.83,-0.15,-0.23,0.30,1012.78
2.587,0.17,0.94,-0.17,2.88,-0.14,1.29,-0.15,-0.23,0.30,1012.78
2.615,0.17,0.94,-0.17,2.88,-0.14,1.29,-0.15,-0.23,0.30,1012.78
2.622,0.07,1.05,-0.38,2.88,-0.14,1.29,-0.15,-0.23,0.30,1012.78
2.624,0.07,1.05,-0.38,2.88,-0.14,1.29,-0.05,0.28,-0.07,1012.78
2.626,0.07,1.05,-0.38,1.86,0.96,-0.74,-0.05,0.28,-0.07,1012.78
2.671,-0.06,1.17,-0.40,1.86,0.96,-0.74,-0.05,0.28,-0.07,1012.78
2.674,-0.06,1.17,-0.40,1.86,0.96,-0.74,-0.15,-0.23,-0.24,1012.78
2.676,-0.06,1.17,-0.40,0.61,2.10,-0.99,-0.15,-0.23,-0.24,1012.78
2.678,-0.06,1.17,-0.40,0.61,2.10,-0.99,-0.15,-0.23,-0.24,1012.78
2.715,-0.19,1.37,-0.35,0.61,2.10,-0.99,-0.15,-0.23,-0.24,1012.78
2.716,-0.19,1.37,-0.35,0.61,2.10,-0.99,-0.30,-0.66,-0.17,1012.78
2.718,-0.19,1.37,-0.35,-0.49,3.91,-0.70,-0.30,-0.66,-0.17,1012.78
2.733,-0.19,1.37,-0.35,-0.49,3.91,-0.70,-0.30,-0.66,-0.17,1012.79
2.737,-0.38,1.71,-0.14,-0.49,3.91,-0.70,-0.30,-0.66,-0.17,1012.79
2.738,-0.38,1.71,-0.14,-0.49,3.91,-0.70,-0.44,-0.85,0.04,1012.79
2.739,-0.38,1.71,-0.14,-2.22,7.07,1.15,-0.44,-0.85,0.04,1012.79
2.777,0.66,1.57,0.10,-2.22,7.07,1.15,-0.44,-0.85,0.04,1012.79
2.779,0.66,1.57,0.10,-2.22,7.07,1.15,-0.71,-1.10,0.21,1012.79
2.78,0.66,1.57,0.10,7.88,5.60,3.16,-0.71,-1.10,0.21,1012.79
2.794,0.66,1.57,0.10,7.88,5.60,3.16,-0.71,-1.10,0.21,1012.79
2.818,1.14,1.44,-0.02,7.88,5.60,3.16,-0.71,-1.10,0.21,1012.79
2.82,1.14,1.44,-0.02,7.88,5.60,3.16,-0.32,0.69,-0.94,1012.79
2.821,1.14,1.44,-0.02,12.64,4.25,1.87,-0.32,0.69,-0.94,1012.79
2.87,1.14,1.44,-0.02,12.64,4.25,1.87,-0.32,0.69,-0.94,1012.78
2.874,-0.99,1.87,-0.63,12.64,4.25,1.87,-0.32,0.69,-0.94,1012.78
2.876,-0.99,1.87,-0.63,12.64,4.25,1.87,1.19,1.78,-3.65,1012.78
2.878,-0.99,1.87,-0.63,-6.85,8.71,-3.45,1.19,1.78,-3.65,1012.78
2.902,-0.85,1.54,-0.58,-6.85,8.71,-3.45,1.19,1.78,-3.65,1012.78
2.903,-0.85,1.54,-0.58,-6.85,8.71,-3.45,1.43,-1.58,-3.39,1012.78
2.904,-0.85,1.54,-0.58,-4.02,6.02,-2.70,1.43,-1.58,-3.39,1012.78
2.915,-0.85,1.54,-0.58,-4.02,6.02,-2.70,1.43,-1.58,-3.39,1012.76
2.948,0.02,1.16,-0.30,-4.02,6.02,-2.70,1.43,-1.58,-3.39,1012.76
2.953,0.02,1.16,-0.30,-4.02,6.02,-2.70,1.03,-3.01,-2.67,1012.76
2.954,0.02,1.16,-0.30,5.65,2.87,-0.15,1.03,-3.01,-2.67,1012.76
2.987,0.02,1.16,-0.30,5.65,2.87,-0.15,1.03,-3.01,-2.67,1012.75
2.991,-0.46,0.68,-0.20,5.65,2.87,-0.15,1.03,-3.01,-2.67,1012.75
2.992,-0.46,0.68,-0.20,5.65,2.87,-0.15,0.79,-0.92,-2.49,1012.75
2.994,-0.46,0.68,-0.20,1.84,-1.07,0.81,0.79,-0.92,-2.49,1012.75
3.016,-0.32,0.47,-0.12,1.84,-1.07,0.81,0.79,-0.92,-2.49,1012.75
3.018,-0.32,0.47,-0.12,1.84,-1.07,0.81,0.48,-0.23,-1.34,1012.75
3.02,-0.32,0.47,-0.12,3.57,-2.70,1.64,0.48,-0.23,-1.34,1012.75
3.035,-0.32,0.47,-0.12,3.57,-2.70,1.64,0.48,-0.23,-1.34,1012.73
3.056,-0.01,0.28,-0.04,3.57,-2.70,1.64,0.48,-0.23,-1.34,1012.73
3.061,-0.01,0.28,-0.04,3.57,-2.70,1.64,0.09,-0.09,-0.11,1012.73
3.063,-0.01,0.28,-0.04,6.54,-4.45,2.42,0.09,-0.09,-0.11,1012.73
3.094,-0.01,0.28,-0.04,5.10,-6.06,2.23,0.09,-0.09,-0.11,1012.73
3.095,-0.11,0.13,-0.07,5.10,-6.06,2.23,0.09,-0.09,-0.11,1012.73
3.096,-0.11,0.13,-0.07,5.10,-6.06,2.23,-0.17,0.81,0.93,1012.73
3.097,-0.11,0.13,-0.07,5.10,-6.06,2.23,-0.17,0.81,0.93,1012.73
3.135,-0.35,0.04,-0.13,5.10,-6.06,2.23,-0.17,0.81,0.93,1012.73
3.139,-0.35,0.04,-0.13,5.10,-6.06,2.23,-0.34,1.08,1.97,1012.73
3.14,-0.35,0.04,-0.13,2.05,-7.31,1.83,-0.34,1.08,1.97,1012.73
3.163,-0.35,0.04,-0.13,2.05,-7.31,1.83,-0.34,1.08,1.97,1012.71
3.198,-0.38,0.01,-0.07,2.05,-7.31,1.83,-0.34,1.08,1.97,1012.71
3.2,-0.38,0.01,-0.07,2.05,-7.31,1.83,-0.31,0.37,2.82,1012.71
3.201,-0.38,0.01,-0.07,0.80,-8.08,2.32,-0.31,0.37,2.82,1012.71
3.213,-0.52,0.17,-0.32,0.80,-8.08,2.32,-0.31,0.37,2.82,1012.71
3.213,-0.52,0.17,-0.32,0.80,-8.08,2.32,-0.09,0.12,3.05,1012.71
3.214,-0.52,0.17,-0.32,-1.60,-6.91,-0.10,-0.09,0.12,3.05,1012.71
3.215,-0.52,0.17,-0.32,-1.60,-6.91,-0.10,-0.09,0.12,3.05,1012.72
3.272,-0.66,0.45,-0.36,-1.60,-6.91,-0.10,-0.09,0.12,3.05,1012.72
3.276,-0.66,0.45,-0.36,-1.60,-6.91,-0.10,-0.09,-0.18,2.56,1012.72
3.278,-0.66,0.45,-0.36,-3.81,-4.42,-0.53,-0.09,-0.18,2.56,1012.72
3.279,-0.66,0.45,-0.36,-3.81,-4.42,-0.53,-0.09,-0.18,2.56,1012.73
3.318,-0.65,0.58,-0.33,-3.81,-4.42,-0.53,-0.09,-0.18,2.56,1012.73
3.32,-0.65,0.58,-0.33,-3.81,-4.42,-0.53,-0.24,0.27,1.15,1012.73
3.321,-0.65,0.58,-0.33,-4.03,-3.18,-0.38,-0.24,0.27,1.15,1012.73
3.332,-0.77,0.48,-0.35,-4.03,-3.18,-0.38,-0.24,0.27,1.15,1012.73
3.333,-0.77,0.48,-0.35,-4.03,-3.18,-0.38,-0.22,1.25,-0.21,1012.73
3.333,-0.77,0.48,-0.35,-5.22,-4.18,-0.49,-0.22,1.25,-0.21,1012.73
3.334,-0.77,0.48,-0.35,-5.22,-4.18,-0.49,-0.22,1.25,-0.21,1012.73
3.371,-0.62,1.46,-1.00,-5.22,-4.18,-0.49,-0.22,1.25,-0.21,1012.73
3.372,-0.62,1.46,-1.00,-5.22,-4.18,-0.49,0.51,1.37,-0.73,1012.73
3.374,-0.62,1.46,-1.00,-3.56,5.54,-6.41,0.51,1.37,-0.73,1012.73
3.391,-0.62,1.46,-1.00,-3.56,5.54,-6.41,0.51,1.37,-0.73,1012.74
3.409,-0.62,1.46,-1.00,0.83,10.57,0.47,0.51,1.37,-0.73,1012.74
3.413,-0.21,1.98,-0.30,0.83,10.57,0.47,0.51,1.37,-0.73,1012.74
3.414,-0.21,1.98,-0.30,0.83,10.57,0.47,0.22,0.13,-1.12,1012.74
3.455,-0.63,-0.14,-0.17,0.83,10.57,0.47,0.22,0.13,-1.12,1012.74
3.456,-0.63,-0.14,-0.17,0.83,10.57,0.47,-0.34,0.30,-0.21,1012.74
3.456,-0.63,-0.14,-0.17,-3.20,-10.03,1.70,-0.34,0.30,-0.21,1012.74
3.457,-0.63,-0.14,-0.17,-3.20,-10.03,1.70,-0.34,0.30,-0.21,1012.73
3.488,-0.89,1.24,-0.46,-3.20,-10.03,1.70,-0.34,0.30,-0.21,1012.73
3.489,-0.89,1.24,-0.46,-3.20,-10.03,1.70,0.27,0.92,-0.24,1012.73
3.49,-0.89,1.24,-0.46,-5.71,3.52,-0.93,0.27,0.92,-0.24,1012.73
3.511,-0.89,1.24,-0.46,-5.71,3.52,-0.93,0.27,0.92,-0.24,1012.72
3.528,-0.19,1.13,-0.47,-5.71,3.52,-0.93,0.27,0.92,-0.24,1012.72
3.529,-0.19,1.13,-0.47,0.89,2.27,-1.02,0.27,0.92,-0.24,1012.72
3.53,-0.19,1.13,-0.47,0.89,2.27,-1.02,0.06,0.22,0.45,1012.72
3.567,-0.66,0.85,-0.50,0.89,2.27,-1.02,0.06,0.22,0.45,1012.72
3.567,-0.66,0.85,-0.50,0.89,2.27,-1.02,-0.12,0.26,0.55,1012.72
3.568,-0.66,0.85,-0.50,-3.86,-0.52,-1.30,-0.12,0.26,0.55,1012.72
3.569,-0.66,0.85,-0.50,-3.86,-0.52,-1.30,-0.12,0.26,0.55,1012.71
3.607,-0.10,0.94,-0.41,-3.86,-0.52,-1.30,-0.12,0.26,0.55,1012.71
3.608,-0.10,0.94,-0.41,-3.86,-0.52,-1.30,-0.28,-0.14,0.94,1012.71
3.609,-0.10,0.94,-0.41,1.31,0.22,-0.55,-0.28,-0.14,0.94,1012.71
3.632,-0.10,0.94,-0.41,1.31,0.22,-0.55,-0.28,-0.14,0.94,1012.71
3.648,-0.27,0.96,-0.41,1.31,0.22,-0.55,-0.28,-0.14,0.94,1012.71
3.65,-0.27,0.96,-0.41,1.31,0.22,-0.55,-0.37,0.22,0.82,1012.71
3.652,-0.27,0.96,-0.41,-0.64,0.36,-0.59,-0.37,0.22,0.82,1012.71
3.687,-0.11,0.88,-0.34,-0.64,0.36,-0.59,-0.37,0.22,0.82,1012.71
3.69,-0.11,0.88,-0.34,-0.64,0.36,-0.59,-0.45,-0.27,0.90,1012.71
3.692,-0.11,0.88,-0.34,0.58,-0.59,-0.14,-0.45,-0.27,0.90,1012.71
3.693,-0.11,0.88,-0.34,0.58,-0.59,-0.14,-0.45,-0.27,0.90,1012.72
3.726,0.10,0.91,-0.28,0.58,-0.59,-0.14,-0.45,-0.27,0.90,1012.72
3.729,0.10,0.91,-0.28,0.58,-0.59,-0.14,-0.44,-0.27,0.79,1012.72
3.73,0.10,0.91,-0.28,2.39,-0.42,0.34,-0.44,-0.27,0.79,1012.72
3.771,0.10,0.91,-0.28,2.39,-0.42,0.34,-0.44,-0.27,0.79,1012.73
3.774,0.08,0.88,-0.16,2.39,-0.42,0.34,-0.44,-0.27,0.79,1012.73
3.776,0.08,0.88,-0.16,2.39,-0.42,0.34,-0.31,-0.08,0.52,1012.73
3.778,0.08,0.88,-0.16,1.91,-0.70,1.36,-0.31,-0.08,0.52,1012.73
3.817,0.08,0.88,-0.16,2.33,-0.16,1.35,-0.31,-0.08,0.52,1012.73
3.822,0.13,0.94,-0.15,2.33,-0.16,1.35,-0.31,-0.08,0.52,1012.73
3.823,0.13,0.94,-0.15,2.33,-0.16,1.35,-0.06,-0.19,0.20,1012.73
3.824,0.13,0.94,-0.15,2.33,-0.16,1.35,-0.06,-0.19,0.20,1012.73
3.845,0.14,1.02,-0.20,2.33,-0.16,1.35,-0.06,-0.19,0.20,1012.73
3.847,0.14,1.02,-0.20,2.33,-0.16,1.35,0.12,-0.07,-0.14,1012.73
3.848,0.14,1.02,-0.20,2.51,0.69,0.88,0.12,-0.07,-0.14,1012.73
3.882,0.14,1.02,-0.20,2.51,0.69,0.88,0.12,-0.07,-0.14,1012.72
3.889,0.14,1.02,-0.20,0.38,1.20,-0.24,0.12,-0.07,-0.14,1012.72
3.891,-0.09,1.08,-0.32,0.38,1.20,-0.24,0.12,-0.07,-0.14,1012.72
3.893,-0.09,1.08,-0.32,0.38,1.20,-0.24,0.18,-0.08,-0.35,1012.72
3.924,-0.16,1.16,-0.51,0.38,1.20,-0.24,0.18,-0.08,-0.35,1012.72
3.925,-0.16,1.16,-0.51,0.38,1.20,-0.24,0.05,-0.56,-0.34,1012.72
3.926,-0.16,1.16,-0.51,-0.18,2.02,-2.01,0.05,-0.56,-0.34,1012.72
3.932,-0.16,1.16,-0.51,-0.18,2.02,-2.01,0.05,-0.56,-0.34,1012.73
3.964,-0.16,1.16,-0.51,-1.20,3.60,-1.31,0.05,-0.56,-0.34,1012.73
3.97,-0.28,1.33,-0.42,-1.20,3.60,-1.31,0.05,-0.56,-0.34,1012.73
3.972,-0.28,1.33,-0.42,-1.20,3.60,-1.31,-0.27,-0.73,-0.12,1012.73
3.997,-0.28,1.33,-0.42,-1.20,3.60,-1.31,-0.27,-0.73,-0.12,1012.72
4.005,-0.40,1.67,-0.07,-1.20,3.60,-1.31,-0.27,-0.73,-0.12,1012.72
4.008,-0.40,1.67,-0.07,-1.20,3.60,-1.31,-0.47,-0.97,0.15,1012.72
4.009,-0.40,1.67,-0.07,-2.31,6.78,1.92,-0.47,-0.97,0.15,1012.72
4.043,0.52,1.55,0.03,-2.31,6.78,1.92,-0.47,-0.97,0.15,1012.72
4.045,0.52,1.55,0.03,6.62,5.45,2.54,-0.47,-0.97,0.15,1012.72
4.046,0.52,1.55,0.03,6.62,5.45,2.54,-0.65,-1.25,0.32,1012.72
4.053,0.52,1.55,0.03,6.62,5.45,2.54,-0.65,-1.25,0.32,1012.72
4.082,1.12,1.33,-0.01,6.62,5.45,2.54,-0.65,-1.25,0.32,1012.72
4.085,1.12,1.33,-0.01,6.62,5.45,2.54,-0.48,-0.10,-0.44,1012.72
4.087,1.12,1.33,-0.01,12.51,3.21,1.88,-0.48,-0.10,-0.44,1012.72
4.113,1.12,1.33,-0.01,12.51,3.21,1.88,-0.48,-0.10,-0.44,1012.71
4.135,-0.18,1.83,-0.61,12.51,3.21,1.88,-0.48,-0.10,-0.44,1012.71
4.136,-0.18,1.83,-0.61,12.51,3.21,1.88,0.93,1.79,-3.04,1012.71
4.137,-0.18,1.83,-0.61,0.77,8.23,-3.43,0.93,1.79,-3.04,1012.71
4.161,-1.25,1.60,-0.68,0.77,8.23,-3.43,0.93,1.79,-3.04,1012.71
4.163,-1.25,1.60,-0.68,0.77,8.23,-3.43,1.55,0.07,-4.01,1012.71
4.164,-1.25,1.60,-0.68,-8.11,6.58,-3.53,1.55,0.07,-4.01,1012.71
4.18,-1.25,1.60,-0.68,-8.11,6.58,-3.53,1.55,0.07,-4.01,1012.72
4.212,-0.09,1.32,-0.44,-8.11,6.58,-3.53,1.55,0.07,-4.01,1012.72
4.214,-0.09,1.32,-0.44,-8.11,6.58,-3.53,1.12,-2.98,-3.04,1012.72
4.215,-0.09,1.32,-0.44,4.59,4.48,-1.34,1.12,-2.98,-3.04,1012.72
4.23,-0.09,1.32,-0.44,4.59,4.48,-1.34,1.12,-2.98,-3.04,1012.73
4.239,-0.13,0.83,-0.14,4.59,4.48,-1.34,1.12,-2.98,-3.04,1012.73
4.24,-0.13,0.83,-0.14,4.59,4.48,-1.34,0.66,-1.42,-2.88,1012.73
4.241,-0.13,0.83,-0.14,5.21,0.44,1.45,0.66,-1.42,-2.88,1012.73
4.282,-0.34,0.50,-0.12,5.21,0.44,1.45,0.66,-1.42,-2.88,1012.73
4.285,-0.34,0.50,-0.12,5.21,0.44,1.45,0.54,0.07,-2.09,1012.73
4.286,-0.34,0.50,-0.12,3.65,-2.12,1.81,0.54,0.07,-2.09,1012.73
4.292,-0.34,0.50,-0.12,3.65,-2.12,1.81,0.54,0.07,-2.09,1012.73
4.32,-0.08,0.33,-0.18,3.65,-2.12,1.81,0.54,0.07,-2.09,1012.73
4.322,-0.08,0.33,-0.18,3.65,-2.12,1.81,0.23,0.51,-0.72,1012.73
4.323,-0.08,0.33,-0.18,6.23,-3.49,1.43,0.23,0.51,-0.72,1012.73
4.351,-0.08,0.33,-0.18,6.23,-3.49,1.43,0.23,0.51,-0.72,1012.72
4.38,-0.12,0.04,-0.12,6.23,-3.49,1.43,0.23,0.51,-0.72,1012.72
4.382,-0.12,0.04,-0.12,6.23,-3.49,1.43,-0.29,1.30,0.53,1012.72
4.383,-0.12,0.04,-0.12,5.39,-6.46,2.21,-0.29,1.30,0.53,1012.72
4.419,-0.30,-0.10,-0.08,5.39,-6.46,2.21,-0.29,1.30,0.53,1012.72
4.422,-0.30,-0.10,-0.08,5.39,-6.46,2.21,-0.66,1.52,1.88,1012.72
4.424,-0.30,-0.10,-0.08,2.89,-8.25,2.74,-0.66,1.52,1.88,1012.72
4.427,-0.30,-0.10,-0.08,2.89,-8.25,2.74,-0.66,1.52,1.88,1012.70
4.438,-0.31,-0.13,-0.07,2.89,-8.25,2.74,-0.66,1.52,1.88,1012.70
4.442,-0.31,-0.13,-0.07,2.89,-8.25,2.74,-0.84,1.12,3.02,1012.70
4.444,-0.31,-0.13,-0.07,1.65,-9.09,2.76,-0.84,1.12,3.02,1012.70
4.477,-0.31,-0.13,-0.07,1.65,-9.09,2.76,-0.84,1.12,3.02,1012.68
4.483,-0.52,-0.06,-0.33,1.65,-9.09,2.76,-0.84,1.12,3.02,1012.68
4.485,-0.52,-0.06,-0.33,1.65,-9.09,2.76,-0.86,1.21,3.44,1012.68
4.486,-0.52,-0.06,-0.33,-1.64,-8.98,0.18,-0.86,1.21,3.44,1012.68
4.516,-0.93,0.19,-0.65,-1.64,-8.98,0.18,-0.86,1.21,3.44,1012.68
4.519,-0.93,0.19,-0.65,-1.64,-8.98,0.18,-0.67,1.33,2.73,1012.68
4.52,-0.93,0.19,-0.65,-6.65,-6.80,-3.03,-0.67,1.33,2.73,1012.68
4.53,-0.93,0.19,-0.65,-6.65,-6.80,-3.03,-0.67,1.33,2.73,1012.68
4.561,-1.30,-0.01,-0.82,-6.65,-6.80,-3.03,-0.67,1.33,2.73,1012.68
4.562,-1.30,-0.01,-0.82,-6.65,-6.80,-3.03,-0.10,1.15,1.15,1012.68
4.563,-1.30,-0.01,-0.82,-10.62,-8.67,-4.56,-0.10,1.15,1.15,1012.68
4.589,-1.30,-0.01,-0.82,-10.62,-8.67,-4.56,-0.10,1.15,1.15,1012.68
4.594,-1.17,2.67,-0.59,-10.62,-8.67,-4.56,-0.10,1.15,1.15,1012.68
4.595,-1.17,2.67,-0.59,-10.62,-8.67,-4.56,0.83,0.25,-0.83,1012.68
4.599,-1.17,2.67,-0.59,-8.94,17.48,-1.92,0.83,0.25,-0.83,1012.68
4.635,-1.17,2.67,-0.59,11.16,3.35,-3.42,0.83,0.25,-0.83,1012.68
4.637,0.86,1.24,-0.72,11.16,3.35,-3.42,0.83,0.25,-0.83,1012.68
4.638,0.86,1.24,-0.72,11.16,3.35,-3.42,-0.24,-1.61,-0.48,1012.68
4.649,0.86,1.24,-0.72,11.16,3.35,-3.42,-0.24,-1.61,-0.48,1012.69
4.679,-0.91,-0.04,-0.13,11.16,3.35,-3.42,-0.24,-1.61,-0.48,1012.69
4.68,-0.91,-0.04,-0.13,11.16,3.35,-3.42,-0.35,2.43,-0.22,1012.69
4.681,-0.91,-0.04,-0.13,-6.37,-9.00,2.42,-0.35,2.43,-0.22,1012.69
4.709,-0.91,-0.04,-0.13,-6.37,-9.00,2.42,-0.35,2.43,-0.22,1012.69
4.724,-1.22,1.55,-0.72,-6.37,-9.00,2.42,-0.35,2.43,-0.22,1012.69
4.726,-1.22,1.55,-0.72,-6.37,-9.00,2.42,0.11,0.32,-0.40,1012.69
4.727,-1.22,1.55,-0.72,-9.15,6.46,-3.22,0.11,0.32,-0.40,1012.69
4.756,0.14,0.79,-0.41,-9.15,6.46,-3.22,0.11,0.32,-0.40,1012.69
4.757,0.14,0.79,-0.41,-9.15,6.46,-3.22,-0.35,-0.56,1.08,1012.69
4.758,0.14,0.79,-0.41,3.78,-1.09,-0.34,-0.35,-0.56,1.08,1012.69
4.774,0.14,0.79,-0.41,3.78,-1.09,-0.34,-0.35,-0.56,1.08,1012.70
4.792,-0.59,0.97,-0.42,3.78,-1.09,-0.34,-0.35,-0.56,1.08,1012.70
4.794,-0.59,0.97,-0.42,3.78,-1.09,-0.34,-0.41,0.63,0.62,1012.70
4.794,-0.59,0.97,-0.42,-3.57,0.58,-0.51,-0.41,0.63,0.62,1012.70
4.83,-0.59,0.97,-0.42,-3.57,0.58,-0.51,-0.41,0.63,0.62,1012.70
4.832,-0.18,0.91,-0.38,-3.57,0.58,-0.51,-0.41,0.63,0.62,1012.70
4.834,-0.18,0.91,-0.38,-3.57,0.58,-0.51,-0.53,-0.10,0.98,1012.70
4.835,-0.18,0.91,-0.38,0.13,-0.23,-0.28,-0.53,-0.10,0.98,1012.70
4.876,-0.06,0.90,-0.30,0.13,-0.23,-0.28,-0.53,-0.10,0.98,1012.70
4.877,-0.06,0.90,-0.30,0.13,-0.23,-0.28,-0.56,-0.38,0.96,1012.70
4.878,-0.06,0.90,-0.30,0.96,-0.39,0.25,-0.56,-0.38,0.96,1012.70
4.905,-0.06,0.90,-0.30,0.96,-0.39,0.25,-0.56,-0.38,0.96,1012.70
4.911,0.06,0.86,-0.23,0.96,-0.39,0.25,-0.56,-0.38,0.96,1012.70
4.912,0.06,0.86,-0.23,0.96,-0.39,0.25,-0.53,-0.09,0.84,1012.70
4.914,0.06,0.86,-0.23,1.85,-0.91,0.75,-0.53,-0.09,0.84,1012.70
4.95,0.06,0.86,-0.23,1.85,-0.91,0.75,-0.53,-0.09,0.84,1012.70
4.954,0.08,0.92,-0.22,1.85,-0.91,0.75,-0.53,-0.09,0.84,1012.70
4.956,0.08,0.92,-0.22,1.85,-0.91,0.75,-0.39,0.07,0.63,1012.70
4.958,0.08,0.92,-0.22,1.68,-0.34,0.67,-0.39,0.07,0.63,1012.70
5.01,0.06,0.93,-0.17,1.68,-0.34,0.67,-0.39,0.07,0.63,1012.70
5.014,0.06,0.93,-0.17,1.68,-0.34,0.67,-0.25,0.03,0.43,1012.70
5.015,0.06,0.93,-0.17,1.30,-0.35,1.08,-0.25,0.03,0.43,1012.70
5.018,0.06,0.93,-0.17,1.30,-0.35,1.08,-0.25,0.03,0.43,1012.70
5.039,0.08,0.97,-0.18,1.30,-0.35,1.08,-0.25,0.03,0.43,1012.70
5.042,0.08,0.97,-0.18,1.30,-0.35,1.08,-0.09,-0.02,0.18,1012.70
5.045,0.08,0.97,-0.18,1.47,0.08,0.92,-0.09,-0.02,0.18,1012.70
5.083,0.24,1.08,-0.21,1.47,0.08,0.92,-0.09,-0.02,0.18,1012.70
5.086,0.24,1.08,-0.21,1.47,0.08,0.92,0.03,-0.06,-0.10,1012.70
5.087,0.24,1.08,-0.21,3.01,1.10,0.62,0.03,-0.06,-0.10,1012.70
5.089,0.24,1.08,-0.21,3.01,1.10,0.62,0.03,-0.06,-0.10,1012.70
5.115,0.04,1.08,-0.31,3.01,1.10,0.62,0.03,-0.06,-0.10,1012.70
5.117,0.04,1.08,-0.31,3.01,1.10,0.62,0.07,0.03,-0.37,1012.70
5.118,0.04,1.08,-0.31,1.21,1.11,-0.38,0.07,0.03,-0.37,1012.70
5.128,0.04,1.08,-0.31,1.21,1.11,-0.38,0.07,0.03,-0.37,1012.71
5.148,-0.19,1.16,-0.36,1.21,1.11,-0.38,0.07,0.03,-0.37,1012.71
5.15,-0.19,1.16,-0.36,1.21,1.11,-0.38,-0.06,-0.16,-0.42,1012.71
5.151,-0.19,1.16,-0.36,-0.91,1.83,-0.88,-0.06,-0.16,-0.42,1012.71
5.199,-0.19,1.16,-0.36,0.00,3.07,-0.12,-0.06,-0.16,-0.42,1012.71
5.205,-0.12,1.29,-0.27,0.00,3.07,-0.12,-0.06,-0.16,-0.42,1012.71
5.207,-0.12,1.29,-0.27,0.00,3.07,-0.12,-0.23,-0.84,-0.22,1012.71
5.209,-0.12,1.29,-0.27,0.00,3.07,-0.12,-0.23,-0.84,-0.22,1012.71
5.23,-0.13,1.56,-0.12,0.00,3.07,-0.12,-0.23,-0.84,-0.22,1012.71
5.234,-0.13,1.56,-0.12,0.00,3.07,-0.12,-0.34,-0.81,-0.13,1012.71
5.24,-0.13,1.56,-0.12,0.03,5.65,1.19,-0.34,-0.81,-0.13,1012.71
5.248,-0.13,1.56,-0.12,0.03,5.65,1.19,-0.34,-0.81,-0.13,1012.71
5.267,0.50,1.51,-0.04,0.03,5.65,1.19,-0.34,-0.81,-0.13,1012.71
5.269,0.50,1.51,-0.04,0.03,5.65,1.19,-0.43,-1.10,-0.15,1012.71
5.271,0.50,1.51,-0.04,6.22,4.98,1.69,-0.43,-1.10,-0.15,1012.71
5.31,0.81,1.26,0.00,6.22,4.98,1.69,-0.43,-1.10,-0.15,1012.71
5.314,0.81,1.26,0.00,6.22,4.98,1.69,-0.37,-0.45,-0.97,1012.71
5.316,0.81,1.26,0.00,6.22,4.98,1.69,-0.37,-0.45,-0.97,1012.70
5.318,0.81,1.26,0.00,9.55,2.50,1.96,-0.37,-0.45,-0.97,1012.70
5.355,-0.48,1.65,-0.59,9.55,2.50,1.96,-0.37,-0.45,-0.97,1012.70
5.358,-0.48,1.65,-0.59,9.55,2.50,1.96,0.51,1.90,-2.68,1012.70
5.359,-0.48,1.65,-0.59,-2.22,6.51,-3.43,0.51,1.90,-2.68,1012.70
5.369,-0.48,1.65,-0.59,-2.22,6.51,-3.43,0.51,1.90,-2.68,1012.70
5.398,-0.91,1.49,-0.52,-2.22,6.51,-3.43,0.51,1.90,-2.68,1012.70
5.4,-0.91,1.49,-0.52,-2.22,6.51,-3.43,0.82,0.62,-3.40,1012.70
5.402,-0.91,1.49,-0.52,-5.14,5.36,-2.39,0.82,0.62,-3.40,1012.70
5.437,-0.13,1.35,-0.40,-5.14,5.36,-2.39,0.82,0.62,-3.40,1012.70
5.441,-0.13,1.35,-0.40,-5.14,5.36,-2.39,0.65,-1.22,-3.42,1012.70
5.442,-0.13,1.35,-0.40,3.79,4.51,-1.18,0.65,-1.22,-3.42,1012.70
5.443,-0.13,1.35,-0.40,3.79,4.51,-1.18,0.65,-1.22,-3.42,1012.68
5.464,-0.40,0.83,-0.26,3.79,4.51,-1.18,0.65,-1.22,-3.42,1012.68
5.465,-0.40,0.83,-0.26,3.79,4.51,-1.18,0.47,0.14,-3.67,1012.68
5.465,-0.40,0.83,-0.26,2.31,0.35,0.39,0.47,0.14,-3.67,1012.68
5.49,-0.40,0.83,-0.26,2.31,0.35,0.39,0.47,0.14,-3.67,1012.67
5.504,-0.55,0.63,-0.25,2.31,0.35,0.39,0.47,0.14,-3.67,1012.67
5.51,-0.55,0.63,-0.25,2.31,0.35,0.39,0.49,0.34,-3.16,1012.67
5.511,-0.55,0.63,-0.25,1.68,-0.78,0.71,0.49,0.34,-3.16,1012.67
5.544,-0.12,0.65,-0.27,1.68,-0.78,0.71,0.49,0.34,-3.16,1012.67
5.548,-0.12,0.65,-0.27,1.68,-0.78,0.71,0.37,-0.11,-2.12,1012.67
5.55,-0.12,0.65,-0.27,6.27,0.07,0.59,0.37,-0.11,-2.12,1012.67
5.552,-0.12,0.65,-0.27,6.27,0.07,0.59,0.37,-0.11,-2.12,1012.65
5.583,-0.12,0.61,-0.33,6.27,0.07,0.59,0.37,-0.11,-2.12,1012.65
5.586,-0.12,0.61,-0.33,6.27,0.07,0.59,0.11,0.54,-1.48,1012.65
5.587,-0.12,0.61,-0.33,6.51,0.22,0.16,0.11,0.54,-1.48,1012.65
5.607,-0.12,0.61,-0.33,6.51,0.22,0.16,0.11,0.54,-1.48,1012.63
5.623,-0.29,0.48,-0.32,6.51,0.22,0.16,0.11,0.54,-1.48,1012.63
5.626,-0.29,0.48,-0.32,6.51,0.22,0.16,-0.35,1.10,-0.68,1012.63
5.627,-0.29,0.48,-0.32,4.75,-0.95,0.48,-0.35,1.10,-0.68,1012.63
5.662,-0.26,0.30,-0.30,4.75,-0.95,0.48,-0.35,1.10,-0.68,1012.63
5.665,-0.26,0.30,-0.30,4.75,-0.95,0.48,-0.84,1.20,0.49,1012.63
5.667,-0.26,0.30,-0.30,4.71,-2.91,0.82,-0.84,1.20,0.49,1012.63
5.669,-0.26,0.30,-0.30,4.71,-2.91,0.82,-0.84,1.20,0.49,1012.63
5.708,-0.18,0.24,-0.29,4.71,-2.91,0.82,-0.84,1.20,0.49,1012.63
5.712,-0.18,0.24,-0.29,4.71,-2.91,0.82,-1.31,1.67,1.67,1012.63
5.714,-0.18,0.24,-0.29,4.66,-4.06,1.12,-1.31,1.67,1.67,1012.63
5.751,-0.18,0.24,-0.29,4.66,-4.06,1.12,-1.31,1.67,1.67,1012.64
5.753,-0.24,0.27,-0.33,4.66,-4.06,1.12,-1.31,1.67,1.67,1012.64
5.753,-0.24,0.27,-0.33,4.66,-4.06,1.12,-1.76,2.37,2.59,1012.64
5.754,-0.24,0.27,-0.33,2.95,-4.58,0.78,-1.76,2.37,2.59,1012.64
5.78,-0.42,0.36,-0.39,2.95,-4.58,0.78,-1.76,2.37,2.59,1012.64
5.781,-0.42,0.36,-0.39,2.95,-4.58,0.78,-2.09,2.37,3.10,1012.64
5.782,-0.42,0.36,-0.39,-0.11,-4.53,-0.03,-2.09,2.37,3.10,1012.64
5.793,-0.42,0.36,-0.39,-0.11,-4.53,-0.03,-2.09,2.37,3.10,1012.65
5.825,-0.49,0.49,-0.40,-0.11,-4.53,-0.03,-2.09,2.37,3.10,1012.65
5.827,-0.49,0.49,-0.40,-0.11,-4.53,-0.03,-2.27,1.73,3.20,1012.65
5.828,-0.49,0.49,-0.40,-2.08,-3.90,-0.60,-2.27,1.73,3.20,1012.65
5.846,-0.49,0.49,-0.40,-2.08,-3.90,-0.60,-2.27,1.73,3.20,1012.65
5.86,-0.62,0.58,-0.42,-2.08,-3.90,-0.60,-2.27,1.73,3.20,1012.65
5.862,-0.62,0.58,-0.42,-2.08,-3.90,-0.60,-2.02,1.59,2.73,1012.65
5.864,-0.62,0.58,-0.42,-4.37,-3.50,-1.36,-2.02,1.59,2.73,1012.65
5.9,-0.81,0.62,-0.74,-4.37,-3.50,-1.36,-2.02,1.59,2.73,1012.65
5.901,-0.81,0.62,-0.74,-4.37,-3.50,-1.36,-1.19,2.10,1.73,1012.65
5.902,-0.81,0.62,-0.74,-6.97,-3.19,-4.80,-1.19,2.10,1.73,1012.65
5.916,-0.81,0.62,-0.74,-6.97,-3.19,-4.80,-1.19,2.10,1.73,1012.66
5.939,-1.15,0.54,-1.17,-6.97,-3.19,-4.80,-1.19,2.10,1.73,1012.66
5.942,-1.15,0.54,-1.17,-6.97,-3.19,-4.80,-0.05,2.07,0.24,1012.66
5.944,-1.15,0.54,-1.17,-10.42,-3.93,-8.82,-0.05,2.07,0.24,1012.66
5.967,-1.15,0.54,-1.17,-10.42,-3.93,-8.82,-0.05,2.07,0.24,1012.65
5.985,-1.18,2.18,-0.67,-10.42,-3.93,-8.82,-0.05,2.07,0.24,1012.65
5.987,-1.18,2.18,-0.67,-10.42,-3.93,-8.82,1.03,-0.04,-1.29,1012.65
5.987,-1.18,2.18,-0.67,-10.12,12.08,-3.47,1.03,-0.04,-1.29,1012.65
6.031,0.68,0.76,-0.05,-10.12,12.08,-3.47,1.03,-0.04,-1.29,1012.65
6.033,0.68,0.76,-0.05,-10.12,12.08,-3.47,-0.11,-3.44,-0.05,1012.65
6.035,0.68,0.76,-0.05,8.41,-1.85,2.27,-0.11,-3.44,-0.05,1012.65
6.036,0.68,0.76,-0.05,8.41,-1.85,2.27,-0.11,-3.44,-0.05,1012.66
6.058,-0.08,0.56,-0.40,8.41,-1.85,2.27,-0.11,-3.44,-0.05,1012.66
6.062,-0.08,0.56,-0.40,8.41,-1.85,2.27,0.28,1.83,-0.50,1012.66
6.064,-0.08,0.56,-0.40,0.94,-3.63,-0.90,0.28,1.83,-0.50,1012.66
6.087,-0.08,0.56,-0.40,0.94,-3.63,-0.90,0.28,1.83,-0.50,1012.66
6.114,-1.26,1.31,-0.47,0.94,-3.63,-0.90,0.28,1.83,-0.50,1012.66
6.117,-1.26,1.31,-0.47,0.94,-3.63,-0.90,0.29,2.14,-1.01,1012.66
6.119,-1.26,1.31,-0.47,-10.36,3.74,-1.27,0.29,2.14,-1.01,1012.66
6.15,-0.18,0.94,-0.42,-10.36,3.74,-1.27,0.29,2.14,-1.01,1012.66
6.155,-0.18,0.94,-0.42,-10.36,3.74,-1.27,0.08,-0.73,0.32,1012.66
6.156,-0.18,0.94,-0.42,0.23,0.07,-0.81,0.08,-0.73,0.32,1012.66
6.157,-0.18,0.94,-0.42,0.23,0.07,-0.81,0.08,-0.73,0.32,1012.65
6.182,-0.29,0.98,-0.35,0.23,0.07,-0.81,0.08,-0.73,0.32,1012.65
6.183,-0.29,0.98,-0.35,0.23,0.07,-0.81,-0.11,-0.15,0.26,1012.65
6.183,-0.29,0.98,-0.35,-0.96,0.50,-0.23,-0.11,-0.15,0.26,1012.65
6.225,-0.29,0.98,-0.35,-0.96,0.50,-0.23,-0.11,-0.15,0.26,1012.65
6.228,-0.35,0.99,-0.32,-0.96,0.50,-0.23,-0.11,-0.15,0.26,1012.65
6.229,-0.35,0.99,-0.32,-0.96,0.50,-0.23,-0.24,0.64,0.45,1012.65
6.23,-0.35,0.99,-0.32,-1.75,0.49,0.09,-0.24,0.64,0.45,1012.65
6.256,-0.40,0.91,-0.31,-1.75,0.49,0.09,-0.24,0.64,0.45,1012.65
6.258,-0.40,0.91,-0.31,-1.75,0.49,0.09,-0.28,-0.14,0.64,1012.65
6.259,-0.40,0.91,-0.31,-2.39,-0.34,0.01,-0.28,-0.14,0.64,1012.65
6.266,-0.40,0.91,-0.31,-2.39,-0.34,0.01,-0.28,-0.14,0.64,1012.65
6.301,0.08,0.93,-0.24,-2.39,-0.34,0.01,-0.28,-0.14,0.64,1012.65
6.304,0.08,0.93,-0.24,-2.39,-0.34,0.01,-0.29,-0.65,0.81,1012.65
6.305,0.08,0.93,-0.24,2.09,-0.26,0.56,-0.29,-0.65,0.81,1012.65
6.333,0.08,0.93,-0.24,2.09,-0.26,0.56,-0.29,-0.65,0.81,1012.65
6.335,0.05,0.93,-0.24,2.09,-0.26,0.56,-0.29,-0.65,0.81,1012.65
6.335,0.05,0.93,-0.24,2.09,-0.26,0.56,-0.27,0.05,0.55,1012.65
6.336,0.05,0.93,-0.24,1.55,-0.31,0.45,-0.27,0.05,0.55,1012.65
6.393,0.04,0.91,-0.16,1.55,-0.31,0.45,-0.27,0.05,0.55,1012.65
6.399,0.04,0.91,-0.16,1.55,-0.31,0.45,-0.17,0.07,0.39,1012.65
6.399,0.04,0.91,-0.16,1.22,-0.56,1.14,-0.17,0.07,0.39,1012.65
6.4,0.04,0.91,-0.16,1.22,-0.56,1.14,-0.17,0.07,0.39,1012.63
6.43,0.08,0.97,-0.22,1.22,-0.56,1.14,-0.17,0.07,0.39,1012.63
6.432,0.08,0.97,-0.22,1.22,-0.56,1.14,-0.02,0.22,0.17,1012.63
6.434,0.08,0.97,-0.22,1.56,0.03,0.57,-0.02,0.22,0.17,1012.63
6.444,0.08,0.97,-0.22,1.56,0.03,0.57,-0.02,0.22,0.17,1012.61
6.452,-0.07,0.97,-0.25,1.56,0.03,0.57,-0.02,0.22,0.17,1012.61
6.455,-0.07,0.97,-0.25,1.56,0.03,0.57,0.02,0.43,-0.05,1012.61
6.455,-0.07,0.97,-0.25,-0.00,0.06,0.35,0.02,0.43,-0.05,1012.61
6.495,-0.07,0.97,-0.25,1.73,0.79,0.78,0.02,0.43,-0.05,1012.61
6.499,0.10,1.04,-0.20,1.73,0.79,0.78,0.02,0.43,-0.05,1012.61
6.5,0.10,1.04,-0.20,1.73,0.79,0.78,0.08,-0.09,-0.23,1012.61
6.523,0.10,1.04,-0.20,1.73,0.79,0.78,0.08,-0.09,-0.23,1012.62
6.531,0.03,1.00,-0.25,1.73,0.79,0.78,0.08,-0.09,-0.23,1012.62
6.532,0.03,1.00,-0.25,1.73,0.79,0.78,0.12,-0.07,-0.51,1012.62
6.532,0.03,1.00,-0.25,1.29,0.42,0.38,0.12,-0.07,-0.51,1012.62
6.565,0.03,1.00,-0.25,1.29,0.42,0.38,0.12,-0.07,-0.51,1012.64
6.588,-0.03,0.99,-0.27,1.29,0.42,0.38,0.12,-0.07,-0.51,1012.64
6.591,-0.03,0.99,-0.27,1.29,0.42,0.38,0.15,-0.11,-0.71,1012.64
6.592,-0.03,0.99,-0.27,0.96,0.28,0.25,0.15,-0.11,-0.71,1012.64
6.631,-0.07,1.01,-0.35,0.96,0.28,0.25,0.15,-0.11,-0.71,1012.64
6.633,-0.07,1.01,-0.35,0.96,0.28,0.25,0.11,-0.03,-0.83,1012.64
6.635,-0.07,1.01,-0.35,0.82,0.62,-0.54,0.11,-0.03,-0.83,1012.64
6.636,-0.07,1.01,-0.35,0.82,0.62,-0.54,0.11,-0.03,-0.83,1012.64
6.649,-0.22,1.05,-0.36,0.82,0.62,-0.54,0.11,-0.03,-0.83,1012.64
6.65,-0.22,1.05,-0.36,0.82,0.62,-0.54,-0.02,0.11,-0.81,1012.64
6.651,-0.22,1.05,-0.36,-0.34,1.03,-0.60,-0.02,0.11,-0.81,1012.64
6.692,-0.22,1.05,-0.36,-0.34,1.03,-0.60,-0.02,0.11,-0.81,1012.63
6.695,-0.14,1.30,-0.35,-0.34,1.03,-0.60,-0.02,0.11,-0.81,1012.63
6.696,-0.14,1.30,-0.35,-0.34,1.03,-0.60,-0.18,-0.25,-0.78,1012.63
6.697,-0.14,1.30,-0.35,0.73,3.43,-0.55,-0.18,-0.25,-0.78,1012.63
6.729,-0.24,1.54,-0.02,0.73,3.43,-0.55,-0.18,-0.25,-0.78,1012.63
6.735,-0.24,1.54,-0.02,0.73,3.43,-0.55,-0.35,-0.45,-0.76,1012.63
6.74,-0.24,1.54,-0.02,0.03,5.73,2.47,-0.35,-0.45,-0.76,1012.63
6.748,-0.24,1.54,-0.02,0.03,5.73,2.47,-0.35,-0.45,-0.76,1012.63
6.768,0.21,1.61,0.07,0.03,5.73,2.47,-0.35,-0.45,-0.76,1012.63
6.769,0.21,1.61,0.07,0.03,5.73,2.47,-0.58,-0.14,-0.87,1012.63
6.77,0.21,1.61,0.07,4.75,6.29,3.05,-0.58,-0.14,-0.87,1012.63
6.805,0.21,1.61,0.07,4.75,6.29,3.05,-0.58,-0.14,-0.87,1012.63
6.809,0.38,1.42,-0.01,4.75,6.29,3.05,-0.58,-0.14,-0.87,1012.63
6.81,0.38,1.42,-0.01,4.75,6.29,3.05,-0.64,-0.32,-1.18,1012.63
6.811,0.38,1.42,-0.01,6.71,4.50,1.99,-0.64,-0.32,-1.18,1012.63
6.847,0.67,1.22,-0.13,6.71,4.50,1.99,-0.64,-0.32,-1.18,1012.63
6.85,0.67,1.22,-0.13,6.71,4.50,1.99,-0.31,0.35,-1.52,1012.63
6.851,0.67,1.22,-0.13,9.94,2.60,0.72,-0.31,0.35,-1.52,1012.63
6.865,0.67,1.22,-0.13,9.94,2.60,0.72,-0.31,0.35,-1.52,1012.63
6.9,0.04,1.39,-0.62,9.94,2.60,0.72,-0.31,0.35,-1.52,1012.63
6.901,0.04,1.39,-0.62,9.94,2.60,0.72,-0.03,4.01,-2.59,1012.63
6.902,0.04,1.39,-0.62,4.25,4.64,-3.51,-0.03,4.01,-2.59,1012.63
6.956,0.04,1.39,-0.62,4.25,4.64,-3.51,-0.03,4.01,-2.59,1012.63
6.96,-1.13,0.98,-0.80,4.25,4.64,-3.51,-0.03,4.01,-2.59,1012.63
6.962,-1.13,0.98,-0.80,4.25,4.64,-3.51,-0.50,3.99,-3.46,1012.63
6.964,-1.13,0.98,-0.80,-6.34,1.05,-4.69,-0.50,3.99,-3.46,1012.63
6.966,-0.25,0.92,-0.67,-6.34,1.05,-4.69,-0.50,3.99,-3.46,1012.63
6.968,-0.25,0.92,-0.67,-6.34,1.05,-4.69,-0.92,0.80,-2.23,1012.63
6.97,-0.25,0.92,-0.67,2.91,0.80,-3.48,-0.92,0.80,-2.23,1012.63
6.983,-0.25,0.92,-0.67,2.91,0.80,-3.48,-0.92,0.80,-2.23,1012.63
7.007,-0.22,0.75,-0.66,2.91,0.80,-3.48,-0.92,0.80,-2.23,1012.63
7.009,-0.22,0.75,-0.66,2.91,0.80,-3.48,-1.33,0.48,-1.94,1012.63
7.01,-0.22,0.75,-0.66,3.69,-0.57,-3.62,-1.33,0.48,-1.94,1012.63
7.042,-0.22,0.75,-0.66,3.69,-0.57,-3.62,-1.33,0.48,-1.94,1012.63
7.044,-0.22,0.75,-0.66,2.68,-1.95,-2.85,-1.33,0.48,-1.94,1012.63
7.045,-0.36,0.58,-0.56,2.68,-1.95,-2.85,-1.33,0.48,-1.94,1012.63
7.046,-0.36,0.58,-0.56,2.68,-1.95,-2.85,-1.76,1.11,-1.69,1012.63
7.09,-0.19,0.64,-0.62,2.68,-1.95,-2.85,-1.76,1.11,-1.69,1012.63
7.093,-0.19,0.64,-0.62,2.68,-1.95,-2.85,-1.97,1.60,-1.27,1012.63
7.095,-0.19,0.64,-0.62,4.52,-1.23,-3.64,-1.97,1.60,-1.27,1012.63
7.103,-0.19,0.64,-0.62,4.52,-1.23,-3.64,-1.97,1.60,-1.27,1012.63
7.128,-0.07,0.71,-0.87,4.52,-1.23,-3.64,-1.97,1.60,-1.27,1012.63
7.133,-0.07,0.71,-0.87,4.52,-1.23,-3.64,-1.96,2.81,-1.03,1012.63
7.135,-0.07,0.71,-0.87,5.59,-0.46,-5.84,-1.96,2.81,-1.03,1012.63
7.161,-0.28,0.73,-1.05,5.59,-0.46,-5.84,-1.96,2.81,-1.03,1012.63
7.164,-0.28,0.73,-1.05,5.59,-0.46,-5.84,-1.96,3.40,-0.87,1012.63
7.165,-0.28,0.73,-1.05,3.32,-0.24,-7.21,-1.96,3.40,-0.87,1012.63
7.166,-0.28,0.73,-1.05,3.32,-0.24,-7.21,-1.96,3.40,-0.87,1012.62
7.209,-0.43,0.66,-1.05,3.32,-0.24,-7.21,-1.96,3.40,-0.87,1012.62
7.212,-0.43,0.66,-1.05,3.32,-0.24,-7.21,-2.00,2.55,-0.44,1012.62
7.214,-0.43,0.66,-1.05,1.65,-1.10,-7.08,-2.00,2.55,-0.44,1012.62
7.246,-0.43,0.66,-1.05,1.65,-1.10,-7.08,-2.00,2.55,-0.44,1012.62
7.253,-0.26,0.64,-1.05,1.65,-1.10,-7.08,-2.00,2.55,-0.44,1012.62
7.254,-0.26,0.64,-1.05,1.65,-1.10,-7.08,-1.95,1.85,0.14,1012.62
7.254,-0.26,0.64,-1.05,3.04,-1.59,-7.10,-1.95,1.85,0.14,1012.62
7.286,-0.26,0.59,-1.00,3.04,-1.59,-7.10,-1.95,1.85,0.14,1012.62
7.289,-0.26,0.59,-1.00,3.04,-1.59,-7.10,-1.89,2.54,0.67,1012.62
7.29,-0.26,0.59,-1.00,2.49,-2.39,-6.58,-1.89,2.54,0.67,1012.62
7.291,-0.26,0.59,-1.00,2.49,-2.39,-6.58,-1.89,2.54,0.67,1012.64
7.324,-0.37,0.58,-0.91,2.49,-2.39,-6.58,-1.89,2.54,0.67,1012.64
7.327,-0.37,0.58,-0.91,2.49,-2.39,-6.58,-1.80,3.46,1.14,1012.64
7.328,-0.37,0.58,-0.91,0.51,-2.89,-5.57,-1.80,3.46,1.14,1012.64
7.342,-0.37,0.58,-0.91,0.51,-2.89,-5.57,-1.80,3.46,1.14,1012.63
7.361,-0.36,0.57,-0.90,0.51,-2.89,-5.57,-1.80,3.46,1.14,1012.63
7.363,-0.36,0.57,-0.90,0.51,-2.89,-5.57,-1.79,4.03,1.57,1012.63
7.364,-0.36,0.57,-0.90,-0.45,-3.31,-5.43,-1.79,4.03,1.57,1012.63
7.405,-0.61,0.56,-0.95,-0.45,-3.31,-5.43,-1.79,4.03,1.57,1012.63
7.41,-0.61,0.56,-0.95,-0.45,-3.31,-5.43,-1.89,3.96,1.88,1012.63
7.411,-0.61,0.56,-0.95,-3.98,-3.85,-6.10,-1.89,3.96,1.88,1012.63
7.413,-0.61,0.56,-0.95,-3.98,-3.85,-6.10,-1.89,3.96,1.88,1012.63
7.458,-0.72,0.54,-0.72,-3.98,-3.85,-6.10,-1.89,3.96,1.88,1012.63
7.462,-0.72,0.54,-0.72,-3.98,-3.85,-6.10,-1.90,2.31,2.25,1012.63
7.463,-0.72,0.54,-0.72,-6.08,-4.26,-4.32,-1.90,2.31,2.25,1012.63
7.464,-0.72,0.54,-0.72,-6.08,-4.26,-4.32,-1.90,2.31,2.25,1012.62
7.479,-0.51,0.60,-0.43,-6.08,-4.26,-4.32,-1.90,2.31,2.25,1012.62
7.48,-0.51,0.60,-0.43,-6.08,-4.26,-4.32,-1.60,1.14,2.28,1012.62
7.481,-0.51,0.60,-0.43,-4.96,-3.84,-2.06,-1.60,1.14,2.28,1012.62
7.52,-0.40,0.65,-0.44,-4.96,-3.84,-2.06,-1.60,1.14,2.28,1012.62
7.522,-0.40,0.65,-0.44,-4.96,-3.84,-2.06,-1.13,2.02,1.53,1012.62
7.523,-0.40,0.65,-0.44,-4.96,-3.84,-2.06,-1.13,2.02,1.53,1012.61
7.524,-0.40,0.65,-0.44,-4.48,-3.37,-2.56,-1.13,2.02,1.53,1012.61
7.56,-0.73,0.61,-0.55,-4.48,-3.37,-2.56,-1.13,2.02,1.53,1012.61
7.564,-0.73,0.61,-0.55,-7.91,-3.75,-3.93,-1.13,2.02,1.53,1012.61
7.566,-0.73,0.61,-0.55,-7.91,-3.75,-3.93,-0.67,2.98,0.31,1012.61
7.583,-0.73,0.61,-0.55,-7.91,-3.75,-3.93,-0.67,2.98,0.31,1012.60
7.612,-0.80,0.53,-0.45,-7.91,-3.75,-3.93,-0.67,2.98,0.31,1012.60
7.616,-0.80,0.53,-0.45,-7.91,-3.75,-3.93,-0.23,1.80,-0.42,1012.60
7.618,-0.80,0.53,-0.45,-8.36,-4.48,-3.04,-0.23,1.80,-0.42,1012.60
7.649,-0.51,1.06,-0.46,-8.36,-4.48,-3.04,-0.23,1.80,-0.42,1012.60
7.651,-0.51,1.06,-0.46,-8.36,-4.48,-3.04,0.56,0.73,-0.87,1012.60
7.653,-0.51,1.06,-0.46,-5.20,0.76,-2.94,0.56,0.73,-0.87,1012.60
7.654,-0.51,1.06,-0.46,-5.20,0.76,-2.94,0.56,0.73,-0.87,1012.60
7.682,-0.51,1.06,-0.46,-3.43,8.08,-0.45,0.56,0.73,-0.87,1012.60
7.683,-0.41,1.81,-0.25,-3.43,8.08,-0.45,0.56,0.73,-0.87,1012.60
7.684,-0.41,1.81,-0.25,-3.43,8.08,-0.45,0.90,0.58,-1.87,1012.60
7.718,-0.41,1.81,-0.25,-3.43,8.08,-0.45,0.90,0.58,-1.87,1012.60
7.72,0.01,0.39,-0.38,-3.43,8.08,-0.45,0.90,0.58,-1.87,1012.60
7.722,0.01,0.39,-0.38,-3.43,8.08,-0.45,0.37,0.05,-0.81,1012.60
7.724,0.01,0.39,-0.38,0.90,-5.77,-1.62,0.37,0.05,-0.81,1012.60
7.756,-1.37,0.67,-0.26,0.90,-5.77,-1.62,0.37,0.05,-0.81,1012.60
7.76,-1.37,0.67,-0.26,0.90,-5.77,-1.62,0.43,1.42,-1.26,1012.60
7.761,-1.37,0.67,-0.26,-12.03,-2.80,-0.15,0.43,1.42,-1.26,1012.60
7.764,-1.37,0.67,-0.26,-12.03,-2.80,-0.15,0.43,1.42,-1.26,1012.60
7.813,-0.17,1.46,-0.53,-12.03,-2.80,-0.15,0.43,1.42,-1.26,1012.60
7.817,-0.17,1.46,-0.53,-0.19,4.87,-2.70,0.43,1.42,-1.26,1012.60
7.819,-0.17,1.46,-0.53,-0.19,4.87,-2.70,0.39,-0.06,-0.09,1012.60
7.821,-0.17,1.46,-0.53,-0.19,4.87,-2.70,0.39,-0.06,-0.09,1012.59
7.851,-0.43,0.95,-0.35,-0.19,4.87,-2.70,0.39,-0.06,-0.09,1012.59
7.854,-0.43,0.95,-0.35,-0.19,4.87,-2.70,0.02,0.41,0.12,1012.59
7.856,-0.43,0.95,-0.35,-2.86,-0.13,-0.83,0.02,0.41,0.12,1012.59
7.883,-0.65,0.98,-0.31,-2.86,-0.13,-0.83,0.02,0.41,0.12,1012.59
7.885,-0.65,0.98,-0.31,-2.86,-0.13,-0.83,-0.07,0.05,0.47,1012.59
7.886,-0.65,0.98,-0.31,-5.08,0.08,-0.47,-0.07,0.05,0.47,1012.59
7.887,-0.65,0.98,-0.31,-5.08,0.08,-0.47,-0.07,0.05,0.47,1012.57
7.922,-0.00,0.97,-0.25,-5.08,0.08,-0.47,-0.07,0.05,0.47,1012.57
7.924,-0.00,0.97,-0.25,-5.08,0.08,-0.47,-0.14,-0.64,0.94,1012.57
7.925,-0.00,0.97,-0.25,0.97,-0.07,0.02,-0.14,-0.64,0.94,1012.57
7.942,-0.00,0.97,-0.25,0.97,-0.07,0.02,-0.14,-0.64,0.94,1012.57
7.954,-0.20,0.97,-0.24,0.97,-0.07,0.02,-0.14,-0.64,0.94,1012.57
7.955,-0.20,0.97,-0.24,0.97,-0.07,0.02,-0.17,0.02,0.80,1012.57
7.955,-0.20,0.97,-0.24,-1.27,-0.04,0.07,-0.17,0.02,0.80,1012.57
8.001,-0.05,0.87,-0.23,-1.27,-0.04,0.07,-0.17,0.02,0.80,1012.57
8.004,-0.05,0.87,-0.23,-1.27,-0.04,0.07,-0.23,-0.04,0.79,1012.57
8.006,-0.05,0.87,-0.23,-0.11,-1.11,0.11,-0.23,-0.04,0.79,1012.57
8.009,-0.05,0.87,-0.23,-0.11,-1.11,0.11,-0.23,-0.04,0.79,1012.59
8.049,0.06,0.79,-0.28,-0.11,-1.11,0.11,-0.23,-0.04,0.79,1012.59
8.05,0.06,0.79,-0.28,-0.11,-1.11,0.11,-0.21,0.33,0.57,1012.59
8.051,0.06,0.79,-0.28,0.73,-1.89,-0.52,-0.21,0.33,0.57,1012.59
8.062,0.06,0.79,-0.28,0.73,-1.89,-0.52,-0.21,0.33,0.57,1012.61
8.071,-0.13,0.82,-0.30,0.73,-1.89,-0.52,-0.21,0.33,0.57,1012.61
8.072,-0.13,0.82,-0.30,0.73,-1.89,-0.52,-0.11,0.65,0.33,1012.61
8.073,-0.13,0.82,-0.30,-1.28,-1.57,-0.72,-0.11,0.65,0.33,1012.61
8.113,0.07,0.88,-0.24,-1.28,-1.57,-0.72,-0.11,0.65,0.33,1012.61
8.115,0.07,0.88,-0.24,0.54,-0.92,-0.16,-0.11,0.65,0.33,1012.61
8.116,0.07,0.88,-0.24,0.54,-0.92,-0.16,-0.07,0.36,0.24,1012.61
8.12,0.07,0.88,-0.24,0.54,-0.92,-0.16,-0.07,0.36,0.24,1012.63
8.152,0.21,1.14,-0.30,0.54,-0.92,-0.16,-0.07,0.36,0.24,1012.63
8.153,0.21,1.14,-0.30,0.54,-0.92,-0.16,-0.04,0.66,0.06,1012.63
8.154,0.21,1.14,-0.30,1.79,1.56,-0.76,-0.04,0.66,0.06,1012.63
8.196,0.21,1.14,-0.30,1.79,1.56,-0.76,-0.04,0.66,0.06,1012.63
8.199,-0.06,1.03,-0.28,1.79,1.56,-0.76,-0.04,0.66,0.06,1012.63
8.199,-0.06,1.03,-0.28,1.79,1.56,-0.76,-0.18,0.71,-0.11,1012.63
8.2,-0.06,1.03,-0.28,-0.88,0.49,-0.63,-0.18,0.71,-0.11,1012.63
8.243,-0.10,0.84,-0.14,-0.88,0.49,-0.63,-0.18,0.71,-0.11,1012.63
8.247,-0.10,0.84,-0.14,-0.88,0.49,-0.63,-0.17,0.31,-0.19,1012.63
8.249,-0.10,0.84,-0.14,-1.13,-1.42,0.65,-0.17,0.31,-0.19,1012.63
8.251,-0.10,0.84,-0.14,-1.13,-1.42,0.65,-0.17,0.31,-0.19,1012.61
8.271,0.14,1.26,-0.24,-1.13,-1.42,0.65,-0.17,0.31,-0.19,1012.61
8.275,0.14,1.26,-0.24,-1.13,-1.42,0.65,-0.05,0.15,-0.28,1012.61
8.277,0.14,1.26,-0.24,1.28,2.68,-0.35,-0.05,0.15,-0.28,1012.61
8.301,0.14,1.26,-0.24,1.28,2.68,-0.35,-0.05,0.15,-0.28,1012.59
8.31,-0.33,1.01,-0.41,1.28,2.68,-0.35,-0.05,0.15,-0.28,1012.59
8.312,-0.33,1.01,-0.41,1.28,2.68,-0.35,-0.21,0.24,-0.23,1012.59
8.313,-0.33,1.01,-0.41,-3.27,0.26,-2.00,-0.21,0.24,-0.23,1012.59
8.349,-0.49,0.70,-0.27,-3.27,0.26,-2.00,-0.21,0.24,-0.23,1012.59
8.35,-0.49,0.70,-0.27,-3.27,0.26,-2.00,-0.49,0.06,0.20,1012.59
8.351,-0.49,0.70,-0.27,-4.80,-2.81,-0.82,-0.49,0.06,0.20,1012.59
8.36,-0.49,0.70,-0.27,-4.80,-2.81,-0.82,-0.49,0.06,0.20,1012.58
8.389,0.25,1.15,0.01,-4.80,-2.81,-0.82,-0.49,0.06,0.20,1012.58
8.39,0.25,1.15,0.01,-4.80,-2.81,-0.82,-0.43,-0.51,0.42,1012.58
8.391,0.25,1.15,0.01,2.28,1.58,1.74,-0.43,-0.51,0.42,1012.58
8.42,0.25,1.15,0.01,2.28,1.58,1.74,-0.43,-0.51,0.42,1012.58
8.449,0.11,1.10,-0.16,2.28,1.58,1.74,-0.43,-0.51,0.42,1012.58
8.452,0.11,1.10,-0.16,2.28,1.58,1.74,-0.27,-0.22,0.15,1012.58
8.455,0.11,1.10,-0.16,0.89,1.00,-0.05,-0.27,-0.22,0.15,1012.58
8.467,-0.09,0.89,-0.25,0.89,1.00,-0.05,-0.27,-0.22,0.15,1012.58
8.468,-0.09,0.89,-0.25,0.89,1.00,-0.05,-0.29,-0.37,0.06,1012.58
8.469,-0.09,0.89,-0.25,-1.04,-1.00,-1.03,-0.29,-0.37,0.06,1012.58
8.479,-0.09,0.89,-0.25,-1.04,-1.00,-1.03,-0.29,-0.37,0.06,1012.58
8.514,0.10,1.00,-0.10,-1.04,-1.00,-1.03,-0.29,-0.37,0.06,1012.58
8.517,0.10,1.00,-0.10,-1.04,-1.00,-1.03,-0.32,-0.54,-0.07,1012.58
8.518,0.10,1.00,-0.10,0.85,-0.02,0.30,-0.32,-0.54,-0.07,1012.58
8.539,0.10,1.00,-0.10,0.85,-0.02,0.30,-0.32,-0.54,-0.07,1012.59
8.546,-0.03,1.02,-0.01,0.85,-0.02,0.30,-0.32,-0.54,-0.07,1012.59
8.546,-0.03,1.02,-0.01,0.85,-0.02,0.30,-0.25,-0.15,-0.23,1012.59
8.547,-0.03,1.02,-0.01,-0.34,0.19,1.15,-0.25,-0.15,-0.23,1012.59
8.588,-0.03,1.02,-0.01,0.47,0.66,0.58,-0.25,-0.15,-0.23,1012.59
8.591,0.04,1.07,-0.06,0.47,0.66,0.58,-0.25,-0.15,-0.23,1012.59
8.592,0.04,1.07,-0.06,0.47,0.66,0.58,-0.14,-0.16,-0.27,1012.59
8.617,0.04,1.07,-0.06,0.47,0.66,0.58,-0.14,-0.16,-0.27,1012.60
8.672,-0.10,0.96,-0.14,0.47,0.66,0.58,-0.14,-0.16,-0.27,1012.60
8.675,-0.10,0.96,-0.14,0.47,0.66,0.58,-0.09,-0.16,-0.26,1012.60
8.677,-0.10,0.96,-0.14,-0.84,-0.41,-0.28,-0.09,-0.16,-0.26,1012.60
8.679,-0.10,0.96,-0.14,-0.84,-0.41,-0.28,-0.09,-0.16,-0.26,1012.61
8.68,-0.23,0.94,-0.14,-0.84,-0.41,-0.28,-0.09,-0.16,-0.26,1012.61
8.682,-0.23,0.94,-0.14,-0.84,-0.41,-0.28,-0.10,-0.16,-0.22,1012.61
8.683,-0.23,0.94,-0.14,-1.95,-0.59,-0.32,-0.10,-0.16,-0.22,1012.61
8.704,-0.16,0.96,-0.12,-1.95,-0.59,-0.32,-0.10,-0.16,-0.22,1012.61
8.706,-0.16,0.96,-0.12,-1.95,-0.59,-0.32,-0.16,-0.37,-0.16,1012.61
8.708,-0.16,0.96,-0.12,-1.14,-0.42,-0.19,-0.16,-0.37,-0.16,1012.61
8.752,-0.16,0.96,-0.12,-1.14,-0.42,-0.19,-0.16,-0.37,-0.16,1012.62
8.758,-0.21,0.90,-0.13,-1.14,-0.42,-0.19,-0.16,-0.37,-0.16,1012.62
8.759,-0.21,0.90,-0.13,-1.14,-0.42,-0.19,-0.19,-0.20,-0.21,1012.62
8.761,-0.21,0.90,-0.13,-1.61,-1.01,-0.34,-0.19,-0.20,-0.21,1012.62
8.778,-0.21,0.90,-0.13,-1.61,-1.01,-0.34,-0.19,-0.20,-0.21,1012.60
8.782,0.02,1.11,-0.01,-1.61,-1.01,-0.34,-0.19,-0.20,-0.21,1012.60
8.783,0.02,1.11,-0.01,0.81,1.09,0.82,-0.19,-0.20,-0.21,1012.60
8.784,0.02,1.11,-0.01,0.81,1.09,0.82,-0.11,-0.37,-0.25,1012.60
8.825,0.12,1.07,-0.03,0.81,1.09,0.82,-0.11,-0.37,-0.25,1012.60
8.827,0.12,1.07,-0.03,1.84,0.69,0.58,-0.11,-0.37,-0.25,1012.60
8.828,0.12,1.07,-0.03,1.84,0.69,0.58,-0.05,-0.35,-0.20,1012.60
8.839,0.12,1.07,-0.03,1.84,0.69,0.58,-0.05,-0.35,-0.20,1012.59
8.861,-0.25,0.97,-0.10,1.84,0.69,0.58,-0.05,-0.35,-0.20,1012.59
8.862,-0.25,0.97,-0.10,1.84,0.69,0.58,0.03,0.03,-0.28,1012.59
8.862,-0.25,0.97,-0.10,-1.70,-0.32,-0.17,0.03,0.03,-0.28,1012.59
8.9,-0.25,0.97,-0.10,-1.70,-0.32,-0.17,0.03,0.03,-0.28,1012.59
8.901,-0.15,1.02,-0.13,-1.70,-0.32,-0.17,0.03,0.03,-0.28,1012.59
8.901,-0.15,1.02,-0.13,-1.70,-0.32,-0.17,0.02,-0.28,-0.21,1012.59
8.901,-0.15,1.02,-0.13,-0.55,0.23,-0.38,0.02,-0.28,-0.21,1012.59
8.94,-0.15,0.99,-0.07,-0.55,0.23,-0.38,0.02,-0.28,-0.21,1012.59
8.943,-0.15,0.99,-0.07,-0.54,-0.07,0.20,0.02,-0.28,-0.21,1012.59
8.945,-0.15,0.99,-0.07,-0.54,-0.07,0.20,-0.02,-0.18,-0.17,1012.59
8.957,-0.15,0.99,-0.07,-0.54,-0.07,0.20,-0.02,-0.18,-0.17,1012.58
8.98,-0.22,0.96,-0.10,-0.54,-0.07,0.20,-0.02,-0.18,-0.17,1012.58
8.981,-0.22,0.96,-0.10,-0.54,-0.07,0.20,-0.01,-0.09,-0.15,1012.58
8.982,-0.22,0.96,-0.10,-1.14,-0.32,-0.12,-0.01,-0.09,-0.15,1012.58
9.017,-0.22,0.96,-0.10,-1.14,-0.32,-0.12,-0.01,-0.09,-0.15,1012.57
9.02,-0.13,1.02,-0.09,-1.14,-0.32,-0.12,-0.01,-0.09,-0.15,1012.57
9.024,-0.13,1.02,-0.09,-1.14,-0.32,-0.12,-0.02,-0.17,-0.12,1012.57
9.025,-0.13,1.02,-0.09,-0.20,0.20,-0.09,-0.02,-0.17,-0.12,1012.57
9.059,-0.11,1.02,-0.09,-0.20,0.20,-0.09,-0.02,-0.17,-0.12,1012.57
9.06,-0.11,1.02,-0.09,-0.20,0.20,-0.09,-0.02,-0.07,-0.12,1012.57
9.062,-0.11,1.02,-0.09,0.05,0.26,-0.02,-0.02,-0.07,-0.12,1012.57
9.076,-0.11,1.02,-0.09,0.05,0.26,-0.02,-0.02,-0.07,-0.12,1012.55
9.098,-0.18,0.97,-0.10,0.05,0.26,-0.02,-0.02,-0.07,-0.12,1012.55
9.099,-0.18,0.97,-0.10,0.05,0.26,-0.02,-0.04,-0.00,-0.11,1012.55
9.099,-0.18,0.97,-0.10,-0.56,-0.22,-0.14,-0.04,-0.00,-0.11,1012.55
9.136,-0.20,1.00,-0.09,-0.56,-0.22,-0.14,-0.04,-0.00,-0.11,1012.55
9.136,-0.20,1.00,-0.09,-0.56,-0.22,-0.14,-0.06,-0.00,-0.09,1012.55
9.137,-0.20,1.00,-0.09,-0.74,-0.00,-0.14,-0.06,-0.00,-0.09,1012.55
9.137,-0.20,1.00,-0.09,-0.74,-0.00,-0.14,-0.06,-0.00,-0.09,1012.56
9.177,-0.23,0.98,-0.07,-0.74,-0.00,-0.14,-0.06,-0.00,-0.09,1012.56
9.178,-0.23,0.98,-0.07,-0.74,-0.00,-0.14,-0.05,0.01,-0.06,1012.56
9.179,-0.23,0.98,-0.07,-0.97,-0.20,0.06,-0.05,0.01,-0.06,1012.56
9.196,-0.23,0.98,-0.07,-0.97,-0.20,0.06,-0.05,0.01,-0.06,1012.58
9.222,-0.22,0.97,-0.06,-0.97,-0.20,0.06,-0.05,0.01,-0.06,1012.58
9.223,-0.22,0.97,-0.06,-0.97,-0.20,0.06,-0.03,-0.01,-0.01,1012.58
9.224,-0.22,0.97,-0.06,-0.81,-0.24,0.16,-0.03,-0.01,-0.01,1012.58
9.257,-0.19,0.98,-0.06,-0.81,-0.24,0.16,-0.03,-0.01,-0.01,1012.58
9.261,-0.19,0.98,-0.06,-0.81,-0.24,0.16,-0.01,0.03,0.00,1012.58
9.263,-0.19,0.98,-0.06,-0.81,-0.24,0.16,-0.01,0.03,0.00,1012.60
9.265,-0.19,0.98,-0.06,-0.58,-0.16,0.11,-0.01,0.03,0.00,1012.60
9.303,-0.16,1.00,-0.08,-0.58,-0.16,0.11,-0.01,0.03,0.00,1012.60
9.304,-0.16,1.00,-0.08,-0.58,-0.16,0.11,0.00,0.04,-0.01,1012.60
9.305,-0.16,1.00,-0.08,-0.19,0.07,-0.04,0.00,0.04,-0.01,1012.60
9.318,-0.16,1.00,-0.08,-0.19,0.07,-0.04,0.00,0.04,-0.01,1012.62
9.335,-0.15,0.99,-0.06,-0.19,0.07,-0.04,0.00,0.04,-0.01,1012.62
9.336,-0.15,0.99,-0.06,-0.19,0.07,-0.04,0.01,0.04,-0.02,1012.62
9.337,-0.15,0.99,-0.06,-0.16,-0.06,0.18,0.01,0.04,-0.02,1012.62
