time,gFx,gFy,gFz,ax,ay,az,wx,wy,wz,P
0.002,-0.12,0.99,-0.06,-0.06,-0.13,0.52,-0.05,0.07,-0.03,1012.83
0.003,-0.12,0.99,-0.06,-0.06,-0.13,0.52,0.02,0.03,-0.02,1012.83
0.004,-0.12,0.99,-0.06,0.09,-0.06,0.09,0.02,0.03,-0.02,1012.83
0.007,-0.12,0.99,-0.06,0.09,-0.06,0.09,0.02,0.03,-0.02,1012.83
0.029,-0.21,1.00,-0.05,0.09,-0.06,0.09,0.02,0.03,-0.02,1012.83
0.029,-0.21,1.00,-0.05,0.09,-0.06,0.09,0.03,0.14,-0.02,1012.83
0.03,-0.21,1.00,-0.05,-0.75,0.10,0.22,0.03,0.14,-0.02,1012.83
0.066,-0.21,1.00,-0.05,-0.75,0.10,0.22,0.03,0.14,-0.02,1012.84
0.068,-0.17,1.02,-0.04,-0.75,0.10,0.22,0.03,0.14,-0.02,1012.84
0.069,-0.17,1.02,-0.04,-0.75,0.10,0.22,0.03,0.12,0.05,1012.84
0.069,-0.17,1.02,-0.04,-0.35,0.29,0.35,0.03,0.12,0.05,1012.84
0.109,-0.17,1.00,-0.06,-0.35,0.29,0.35,0.03,0.12,0.05,1012.84
0.11,-0.17,1.00,-0.06,-0.35,0.29,0.35,0.05,0.18,0.05,1012.84
0.11,-0.17,1.00,-0.06,-0.39,0.11,0.22,0.05,0.18,0.05,1012.84
0.126,-0.17,1.00,-0.06,-0.39,0.11,0.22,0.05,0.18,0.05,1012.84
0.157,-0.21,0.94,-0.08,-0.39,0.11,0.22,0.05,0.18,0.05,1012.84
0.163,-0.21,0.94,-0.08,-0.39,0.11,0.22,0.07,0.12,0.21,1012.84
0.165,-0.21,0.94,-0.08,-0.87,-0.50,0.02,0.07,0.12,0.21,1012.84
0.197,-0.21,0.94,-0.08,-0.87,-0.50,0.02,0.07,0.12,0.21,1012.84
0.198,-0.13,1.00,-0.10,-0.87,-0.50,0.02,0.07,0.12,0.21,1012.84
0.199,-0.13,1.00,-0.10,-0.19,0.05,-0.18,0.07,0.12,0.21,1012.84
0.2,-0.13,1.00,-0.10,-0.19,0.05,-0.18,0.05,0.05,0.26,1012.84
0.235,-0.19,1.00,-0.09,-0.19,0.05,-0.18,0.05,0.05,0.26,1012.84
0.238,-0.19,1.00,-0.09,-0.19,0.05,-0.18,0.02,0.15,0.28,1012.84
0.24,-0.19,1.00,-0.09,-0.92,0.03,-0.05,0.02,0.15,0.28,1012.84
0.253,-0.19,1.00,-0.09,-0.92,0.03,-0.05,0.02,0.15,0.28,1012.83
0.269,-0.11,0.98,-0.09,-0.92,0.03,-0.05,0.02,0.15,0.28,1012.83
0.271,-0.11,0.98,-0.09,-0.92,0.03,-0.05,0.02,0.07,0.38,1012.83
0.273,-0.11,0.98,-0.09,-0.27,-0.17,-0.00,0.02,0.07,0.38,1012.83
0.305,-0.08,1.01,-0.15,-0.27,-0.17,-0.00,0.02,0.07,0.38,1012.83
0.307,-0.08,1.01,-0.15,-0.27,-0.17,-0.00,0.02,0.19,0.43,1012.83
0.308,-0.08,1.01,-0.15,-0.08,0.12,-0.60,0.02,0.19,0.43,1012.83
0.309,-0.08,1.01,-0.15,-0.08,0.12,-0.60,0.02,0.19,0.43,1012.83
0.347,-0.08,1.01,-0.15,0.72,0.09,0.18,0.02,0.19,0.43,1012.83
0.348,0.02,1.01,-0.07,0.72,0.09,0.18,0.02,0.19,0.43,1012.83
0.349,0.02,1.01,-0.07,0.72,0.09,0.18,-0.01,0.17,0.44,1012.83
0.365,0.02,1.01,-0.07,0.72,0.09,0.18,-0.01,0.17,0.44,1012.83
0.396,0.13,1.11,0.01,0.72,0.09,0.18,-0.01,0.17,0.44,1012.83
0.399,0.13,1.11,0.01,0.72,0.09,0.18,0.03,-0.02,0.31,1012.83
0.401,0.13,1.11,0.01,1.63,1.03,0.93,0.03,-0.02,0.31,1012.83
0.436,0.28,1.13,-0.02,1.63,1.03,0.93,0.03,-0.02,0.31,1012.83
0.44,0.28,1.13,-0.02,1.63,1.03,0.93,0.13,-0.33,0.07,1012.83
0.442,0.28,1.13,-0.02,1.63,1.03,0.93,0.13,-0.33,0.07,1012.84
0.444,0.28,1.13,-0.02,3.03,1.24,0.74,0.13,-0.33,0.07,1012.84
0.47,0.43,1.46,-0.05,3.03,1.24,0.74,0.13,-0.33,0.07,1012.84
0.472,0.43,1.46,-0.05,3.03,1.24,0.74,0.21,-0.41,-0.34,1012.84
0.472,0.43,1.46,-0.05,4.53,4.38,0.51,0.21,-0.41,-0.34,1012.84
0.486,0.43,1.46,-0.05,4.53,4.38,0.51,0.21,-0.41,-0.34,1012.84
0.515,0.72,1.55,0.21,4.53,4.38,0.51,0.21,-0.41,-0.34,1012.84
0.517,0.72,1.55,0.21,4.53,4.38,0.51,0.21,-0.34,-0.86,1012.84
0.518,0.72,1.55,0.21,7.61,5.21,3.09,0.21,-0.34,-0.86,1012.84
0.544,0.08,1.67,-0.21,7.61,5.21,3.09,0.21,-0.34,-0.86,1012.84
0.546,0.08,1.67,-0.21,7.61,5.21,3.09,0.91,0.38,-1.90,1012.84
0.548,0.08,1.67,-0.21,7.61,5.21,3.09,0.91,0.38,-1.90,1012.83
0.549,0.08,1.67,-0.21,2.03,6.40,-0.63,0.91,0.38,-1.90,1012.83
0.593,-0.20,1.55,-0.23,2.03,6.40,-0.63,0.91,0.38,-1.90,1012.83
0.597,-0.20,1.55,-0.23,2.03,6.40,-0.63,1.12,-0.50,-2.07,1012.83
0.598,-0.20,1.55,-0.23,0.08,5.40,-0.42,1.12,-0.50,-2.07,1012.83
0.605,-0.20,1.55,-0.23,0.08,5.40,-0.42,1.12,-0.50,-2.07,1012.83
0.623,0.24,1.03,0.05,0.08,5.40,-0.42,1.12,-0.50,-2.07,1012.83
0.624,0.24,1.03,0.05,0.08,5.40,-0.42,0.68,-1.33,-1.54,1012.83
0.625,0.24,1.03,0.05,5.03,0.45,2.33,0.68,-1.33,-1.54,1012.83
0.674,0.12,0.83,-0.03,5.03,0.45,2.33,0.68,-1.33,-1.54,1012.83
0.677,0.12,0.83,-0.03,5.03,0.45,2.33,0.62,-0.00,-0.71,1012.83
0.678,0.12,0.83,-0.03,4.10,-1.39,1.80,0.62,-0.00,-0.71,1012.83
0.679,0.12,0.83,-0.03,4.10,-1.39,1.80,0.62,-0.00,-0.71,1012.83
0.701,-0.05,0.66,-0.13,4.10,-1.39,1.80,0.62,-0.00,-0.71,1012.83
0.703,-0.05,0.66,-0.13,4.10,-1.39,1.80,0.46,0.94,0.30,1012.83
0.704,-0.05,0.66,-0.13,2.15,-2.94,1.03,0.46,0.94,0.30,1012.83
0.724,-0.05,0.66,-0.13,2.15,-2.94,1.03,0.46,0.94,0.30,1012.82
0.742,-0.16,0.51,-0.21,2.15,-2.94,1.03,0.46,0.94,0.30,1012.82
0.744,-0.16,0.51,-0.21,2.15,-2.94,1.03,0.06,0.88,1.12,1012.82
0.745,-0.16,0.51,-0.21,0.55,-4.44,0.36,0.06,0.88,1.12,1012.82
0.816,-0.12,0.48,-0.21,0.55,-4.44,0.36,0.06,0.88,1.12,1012.82
0.818,-0.12,0.48,-0.21,0.55,-4.44,0.36,-0.33,0.77,1.57,1012.82
0.82,-0.12,0.48,-0.21,0.32,-4.85,0.31,-0.33,0.77,1.57,1012.82
0.822,-0.12,0.48,-0.21,0.32,-4.85,0.31,-0.33,0.77,1.57,1012.80
0.823,-0.22,0.42,-0.22,0.32,-4.85,0.31,-0.33,0.77,1.57,1012.80
0.825,-0.22,0.42,-0.22,0.32,-4.85,0.31,-0.51,1.35,1.59,1012.80
0.826,-0.22,0.42,-0.22,-1.33,-5.39,0.12,-0.51,1.35,1.59,1012.80
0.845,-0.22,0.42,-0.22,-1.33,-5.39,0.12,-0.51,1.35,1.59,1012.79
0.861,-0.46,0.37,-0.42,-1.33,-5.39,0.12,-0.51,1.35,1.59,1012.79
0.862,-0.46,0.37,-0.42,-1.33,-5.39,0.12,-0.41,2.00,1.17,1012.79
0.862,-0.46,0.37,-0.42,-4.32,-5.87,-2.00,-0.41,2.00,1.17,1012.79
0.9,-0.66,0.27,-0.57,-4.32,-5.87,-2.00,-0.41,2.00,1.17,1012.79
0.902,-0.66,0.27,-0.57,-4.32,-5.87,-2.00,-0.03,1.67,0.39,1012.79
0.903,-0.66,0.27,-0.57,-6.46,-6.70,-3.34,-0.03,1.67,0.39,1012.79
0.905,-0.66,0.27,-0.57,-6.46,-6.70,-3.34,-0.03,1.67,0.39,1012.78
0.938,-0.76,0.91,-0.90,-6.46,-6.70,-3.34,-0.03,1.67,0.39,1012.78
0.94,-0.76,0.91,-0.90,-6.46,-6.70,-3.34,0.72,0.95,-0.37,1012.78
0.941,-0.76,0.91,-0.90,-7.21,-0.45,-6.27,0.72,0.95,-0.37,1012.78
0.984,-0.76,0.91,-0.90,-7.21,-0.45,-6.27,0.72,0.95,-0.37,1012.78
0.987,-0.75,2.45,-0.42,-7.21,-0.45,-6.27,0.72,0.95,-0.37,1012.78
0.989,-0.75,2.45,-0.42,-7.21,-0.45,-6.27,0.75,-0.33,-1.93,1012.78
0.991,-0.75,2.45,-0.42,-6.28,14.57,-1.24,0.75,-0.33,-1.93,1012.78
1.024,0.26,-0.15,-0.43,-6.28,14.57,-1.24,0.75,-0.33,-1.93,1012.78
1.027,0.26,-0.15,-0.43,-6.28,14.57,-1.24,-0.20,-0.70,-0.41,1012.78
1.028,0.26,-0.15,-0.43,3.82,-10.74,-1.41,-0.20,-0.70,-0.41,1012.78
1.031,0.26,-0.15,-0.43,3.82,-10.74,-1.41,-0.20,-0.70,-0.41,1012.80
1.059,0.26,-0.15,-0.43,-10.35,3.86,-2.38,-0.20,-0.70,-0.41,1012.80
1.066,-1.21,1.34,-0.55,-10.35,3.86,-2.38,-0.20,-0.70,-0.41,1012.80
1.068,-1.21,1.34,-0.55,-10.35,3.86,-2.38,0.18,1.46,-0.71,1012.80
1.087,-1.21,1.34,-0.55,-10.35,3.86,-2.38,0.18,1.46,-0.71,1012.81
1.124,-0.29,1.00,-0.44,-10.35,3.86,-2.38,0.18,1.46,-0.71,1012.81
1.127,-0.29,1.00,-0.44,-10.35,3.86,-2.38,-0.24,-0.11,0.32,1012.81
1.128,-0.29,1.00,-0.44,-1.36,0.45,-1.40,-0.24,-0.11,0.32,1012.81
1.137,-0.22,0.95,-0.30,-1.36,0.45,-1.40,-0.24,-0.11,0.32,1012.81
1.138,-0.22,0.95,-0.30,-1.36,0.45,-1.40,-0.36,-0.37,0.54,1012.81
1.139,-0.22,0.95,-0.30,-0.82,-0.10,-0.16,-0.36,-0.37,0.54,1012.81
1.144,-0.22,0.95,-0.30,-0.82,-0.10,-0.16,-0.36,-0.37,0.54,1012.82
1.179,-0.02,1.00,-0.31,-0.82,-0.10,-0.16,-0.36,-0.37,0.54,1012.82
1.182,-0.02,1.00,-0.31,-0.82,-0.10,-0.16,-0.39,-0.03,0.59,1012.82
1.184,-0.02,1.00,-0.31,0.85,0.29,-0.45,-0.39,-0.03,0.59,1012.82
1.226,-0.02,1.00,-0.31,0.85,0.29,-0.45,-0.39,-0.03,0.59,1012.82
1.229,0.12,0.93,-0.26,0.85,0.29,-0.45,-0.39,-0.03,0.59,1012.82
1.232,0.12,0.93,-0.26,0.85,0.29,-0.45,-0.46,-0.12,0.45,1012.82
1.234,0.12,0.93,-0.26,2.03,-0.38,-0.13,-0.46,-0.12,0.45,1012.82
1.257,0.11,0.90,-0.05,2.03,-0.38,-0.13,-0.46,-0.12,0.45,1012.82
1.268,0.11,0.90,-0.05,2.03,-0.38,-0.13,-0.38,0.04,0.25,1012.82
1.27,0.11,0.90,-0.05,1.82,-0.73,1.76,-0.38,0.04,0.25,1012.82
1.272,0.11,0.90,-0.05,1.82,-0.73,1.76,-0.38,0.04,0.25,1012.82
1.296,0.02,0.92,-0.04,1.82,-0.73,1.76,-0.38,0.04,0.25,1012.82
1.299,0.02,0.92,-0.04,1.82,-0.73,1.76,-0.14,0.40,-0.02,1012.82
1.3,0.02,0.92,-0.04,0.92,-0.56,1.79,-0.14,0.40,-0.02,1012.82
1.324,0.02,0.92,-0.04,0.92,-0.56,1.79,-0.14,0.40,-0.02,1012.82
1.334,0.19,1.02,-0.08,0.92,-0.56,1.79,-0.14,0.40,-0.02,1012.82
1.336,0.19,1.02,-0.08,0.92,-0.56,1.79,0.05,0.37,-0.21,1012.82
1.336,0.19,1.02,-0.08,2.55,0.41,1.45,0.05,0.37,-0.21,1012.82
1.376,0.19,1.02,-0.08,2.97,2.73,0.26,0.05,0.37,-0.21,1012.82
1.384,0.23,1.26,-0.20,2.97,2.73,0.26,0.05,0.37,-0.21,1012.82
1.385,0.23,1.26,-0.20,2.97,2.73,0.26,0.18,0.28,-0.32,1012.82
1.386,0.23,1.26,-0.20,2.97,2.73,0.26,0.18,0.28,-0.32,1012.82
1.413,-0.40,1.19,-0.40,2.97,2.73,0.26,0.18,0.28,-0.32,1012.82
1.415,-0.40,1.19,-0.40,2.97,2.73,0.26,0.10,-0.11,-0.53,1012.82
1.417,-0.40,1.19,-0.40,-2.94,2.09,-1.60,0.10,-0.11,-0.53,1012.82
1.444,-0.40,1.19,-0.40,-2.94,2.09,-1.60,0.10,-0.11,-0.53,1012.83
1.453,-0.34,1.43,-0.36,-2.94,2.09,-1.60,0.10,-0.11,-0.53,1012.83
1.457,-0.34,1.43,-0.36,-2.94,2.09,-1.60,-0.16,-0.85,-0.25,1012.83
1.459,-0.34,1.43,-0.36,-2.14,4.40,-1.33,-0.16,-0.85,-0.25,1012.83
1.494,0.42,1.86,0.07,-2.14,4.40,-1.33,-0.16,-0.85,-0.25,1012.83
1.496,0.42,1.86,0.07,-2.14,4.40,-1.33,-0.46,-0.57,0.04,1012.83
1.497,0.42,1.86,0.07,5.27,8.41,2.72,-0.46,-0.57,0.04,1012.83
1.505,0.42,1.86,0.07,5.27,8.41,2.72,-0.46,-0.57,0.04,1012.83
1.538,1.17,1.49,0.33,5.27,8.41,2.72,-0.46,-0.57,0.04,1012.83
1.541,1.17,1.49,0.33,5.27,8.41,2.72,-0.06,-0.25,-0.66,1012.83
1.541,1.17,1.49,0.33,12.65,4.74,5.11,-0.06,-0.25,-0.66,1012.83
1.574,1.17,1.49,0.33,12.65,4.74,5.11,-0.06,-0.25,-0.66,1012.83
1.577,-0.32,2.16,-0.45,12.65,4.74,5.11,-0.06,-0.25,-0.66,1012.83
1.577,-0.32,2.16,-0.45,12.65,4.74,5.11,1.88,0.02,-3.37,1012.83
1.578,-0.32,2.16,-0.45,-0.64,11.53,-1.78,1.88,0.02,-3.37,1012.83
1.61,-1.50,1.70,-0.70,-0.64,11.53,-1.78,1.88,0.02,-3.37,1012.83
1.612,-1.50,1.70,-0.70,-0.64,11.53,-1.78,2.61,-1.66,-3.80,1012.83
1.613,-1.50,1.70,-0.70,-10.40,7.66,-3.46,2.61,-1.66,-3.80,1012.83
1.624,-1.50,1.70,-0.70,-10.40,7.66,-3.46,2.61,-1.66,-3.80,1012.82
1.651,-1.50,1.70,-0.70,6.35,4.00,1.11,2.61,-1.66,-3.80,1012.82
1.652,0.10,1.27,-0.23,6.35,4.00,1.11,2.61,-1.66,-3.80,1012.82
1.653,0.10,1.27,-0.23,6.35,4.00,1.11,1.81,-3.32,-2.18,1012.82
1.704,0.10,1.27,-0.23,6.35,4.00,1.11,1.81,-3.32,-2.18,1012.80
1.708,-0.31,0.74,0.08,6.35,4.00,1.11,1.81,-3.32,-2.18,1012.80
1.71,-0.31,0.74,0.08,6.35,4.00,1.11,1.16,-1.29,-2.00,1012.80
1.712,-0.31,0.74,0.08,3.07,-0.54,4.12,1.16,-1.29,-2.00,1012.80
1.743,-0.24,0.31,0.14,3.07,-0.54,4.12,1.16,-1.29,-2.00,1012.80
1.749,-0.24,0.31,0.14,3.07,-0.54,4.12,0.63,-0.80,-0.85,1012.80
1.749,-0.24,0.31,0.14,4.06,-4.35,4.61,0.63,-0.80,-0.85,1012.80
1.75,-0.24,0.31,0.14,4.06,-4.35,4.61,0.63,-0.80,-0.85,1012.79
1.771,0.10,0.14,0.12,4.06,-4.35,4.61,0.63,-0.80,-0.85,1012.79
1.772,0.10,0.14,0.12,4.06,-4.35,4.61,0.03,0.04,0.64,1012.79
1.773,0.10,0.14,0.12,7.10,-6.05,4.38,0.03,0.04,0.64,1012.79
1.819,0.10,0.14,0.12,7.10,-6.05,4.38,0.03,0.04,0.64,1012.79
1.821,-0.16,0.05,0.05,7.10,-6.05,4.38,0.03,0.04,0.64,1012.79
1.823,-0.16,0.05,0.05,7.10,-6.05,4.38,-0.54,1.25,1.70,1012.79
1.824,-0.16,0.05,0.05,3.80,-7.32,3.79,-0.54,1.25,1.70,1012.79
1.85,-0.37,-0.04,-0.04,3.80,-7.32,3.79,-0.54,1.25,1.70,1012.79
1.852,-0.37,-0.04,-0.04,3.80,-7.32,3.79,-1.00,1.10,2.63,1012.79
1.854,-0.37,-0.04,-0.04,0.77,-8.64,2.72,-1.00,1.10,2.63,1012.79
1.866,-0.37,-0.04,-0.04,0.77,-8.64,2.72,-1.00,1.10,2.63,1012.79
1.889,-0.54,-0.07,-0.28,0.77,-8.64,2.72,-1.00,1.10,2.63,1012.79
1.895,-0.54,-0.07,-0.28,0.77,-8.64,2.72,-1.23,0.78,3.10,1012.79
1.902,-0.54,-0.07,-0.28,-1.99,-9.39,0.12,-1.23,0.78,3.10,1012.79
1.926,-0.54,-0.07,-0.28,-1.99,-9.39,0.12,-1.23,0.78,3.10,1012.78
1.928,-0.67,0.19,-0.67,-1.99,-9.39,0.12,-1.23,0.78,3.10,1012.78
1.931,-0.67,0.19,-0.67,-1.99,-9.39,0.12,-0.96,0.61,2.74,1012.78
1.932,-0.67,0.19,-0.67,-4.28,-7.15,-3.96,-0.96,0.61,2.74,1012.78
1.976,-0.67,0.19,-0.67,-7.74,-7.10,-4.28,-0.96,0.61,2.74,1012.78
1.98,-0.98,0.20,-0.71,-7.74,-7.10,-4.28,-0.96,0.61,2.74,1012.78
1.982,-0.98,0.20,-0.71,-7.74,-7.10,-4.28,-0.27,0.49,1.40,1012.78
1.984,-0.98,0.20,-0.71,-7.74,-7.10,-4.28,-0.27,0.49,1.40,1012.78
2.009,-0.98,0.20,-0.71,-12.41,8.05,-5.32,-0.27,0.49,1.40,1012.78
2.011,-1.50,1.74,-0.86,-12.41,8.05,-5.32,-0.27,0.49,1.40,1012.78
2.012,-1.50,1.74,-0.86,-12.41,8.05,-5.32,0.88,0.59,-0.65,1012.78
2.042,-1.50,1.74,-0.86,-12.41,8.05,-5.32,0.88,0.59,-0.65,1012.77
2.043,0.52,1.18,-0.52,-12.41,8.05,-5.32,0.88,0.59,-0.65,1012.77
2.043,0.52,1.18,-0.52,-12.41,8.05,-5.32,-0.01,-0.81,-0.80,1012.77
2.044,0.52,1.18,-0.52,7.64,2.56,-2.01,-0.01,-0.81,-0.80,1012.77
2.096,-0.57,0.53,-0.33,7.64,2.56,-2.01,-0.01,-0.81,-0.80,1012.77
2.098,-0.57,0.53,-0.33,7.64,2.56,-2.01,0.11,1.43,-0.07,1012.77
2.099,-0.57,0.53,-0.33,-3.18,-3.70,0.03,0.11,1.43,-0.07,1012.77
2.135,-0.57,0.53,-0.33,-3.18,-3.70,0.03,0.11,1.43,-0.07,1012.77
2.137,-1.14,1.18,-0.63,-3.18,-3.70,0.03,0.11,1.43,-0.07,1012.77
2.138,-1.14,1.18,-0.63,-3.18,-3.70,0.03,0.10,0.54,-0.18,1012.77
2.139,-1.14,1.18,-0.63,-8.62,2.65,-2.87,0.10,0.54,-0.18,1012.77
2.161,0.17,0.95,-0.34,-8.62,2.65,-2.87,0.10,0.54,-0.18,1012.77
2.162,0.17,0.95,-0.34,-8.62,2.65,-2.87,-0.24,-0.63,0.84,1012.77
2.163,0.17,0.95,-0.34,-8.62,2.65,-2.87,-0.24,-0.63,0.84,1012.76
2.164,0.17,0.95,-0.34,3.98,0.22,-0.14,-0.24,-0.63,0.84,1012.76
2.238,-0.53,1.01,-0.42,3.98,0.22,-0.14,-0.24,-0.63,0.84,1012.76
2.24,-0.53,1.01,-0.42,-3.15,0.77,-0.95,-0.24,-0.63,0.84,1012.76
2.242,-0.53,1.01,-0.42,-3.15,0.77,-0.95,-0.18,0.32,0.55,1012.76
2.245,-0.53,1.01,-0.42,-3.15,0.77,-0.95,-0.18,0.32,0.55,1012.77
2.246,-0.09,0.94,-0.40,-3.15,0.77,-0.95,-0.18,0.32,0.55,1012.77
2.248,-0.09,0.94,-0.40,-3.15,0.77,-0.95,-0.36,-0.41,0.80,1012.77
2.25,-0.09,0.94,-0.40,0.99,-0.00,-0.87,-0.36,-0.41,0.80,1012.77
2.305,-0.09,0.94,-0.40,1.71,-0.27,-0.08,-0.36,-0.41,0.80,1012.77
2.308,0.01,0.92,-0.30,1.71,-0.27,-0.08,-0.36,-0.41,0.80,1012.77
2.31,0.01,0.92,-0.30,1.71,-0.27,-0.08,-0.45,-0.31,0.70,1012.77
2.311,0.01,0.92,-0.30,1.71,-0.27,-0.08,-0.45,-0.31,0.70,1012.77
2.373,0.01,0.92,-0.30,1.10,-0.76,1.42,-0.45,-0.31,0.70,1012.77
2.379,-0.03,0.88,-0.13,1.10,-0.76,1.42,-0.45,-0.31,0.70,1012.77
2.384,-0.03,0.88,-0.13,1.10,-0.76,1.42,-0.41,-0.02,0.54,1012.77
2.385,-0.03,0.88,-0.13,1.10,-0.76,1.42,-0.41,-0.02,0.54,1012.77
2.386,0.19,0.92,-0.03,1.10,-0.76,1.42,-0.41,-0.02,0.54,1012.77
2.388,0.19,0.92,-0.03,1.10,-0.76,1.42,-0.23,-0.07,0.35,1012.77
2.389,0.19,0.92,-0.03,3.07,-0.44,2.25,-0.23,-0.07,0.35,1012.77
2.418,0.35,1.07,-0.19,3.07,-0.44,2.25,-0.23,-0.07,0.35,1012.77
2.42,0.35,1.07,-0.19,4.52,1.08,0.70,-0.23,-0.07,0.35,1012.77
2.421,0.35,1.07,-0.19,4.52,1.08,0.70,-0.02,0.30,-0.00,1012.77
2.422,0.35,1.07,-0.19,4.52,1.08,0.70,-0.02,0.30,-0.00,1012.78
2.449,-0.15,1.18,-0.45,4.52,1.08,0.70,-0.02,0.30,-0.00,1012.78
2.45,-0.15,1.18,-0.45,4.52,1.08,0.70,0.05,0.45,-0.41,1012.78
2.45,-0.15,1.18,-0.45,-0.22,2.14,-1.77,0.05,0.45,-0.41,1012.78
2.461,-0.15,1.18,-0.45,-0.22,2.14,-1.77,0.05,0.45,-0.41,1012.77
2.479,-0.53,1.31,-0.34,-0.22,2.14,-1.77,0.05,0.45,-0.41,1012.77
2.48,-0.53,1.31,-0.34,-0.22,2.14,-1.77,-0.14,-0.41,-0.29,1012.77
2.481,-0.53,1.31,-0.34,-3.74,3.31,-0.79,-0.14,-0.41,-0.29,1012.77
2.519,-0.27,1.72,-0.20,-3.74,3.31,-0.79,-0.14,-0.41,-0.29,1012.77
2.521,-0.27,1.72,-0.20,-3.74,3.31,-0.79,-0.38,-1.13,0.14,1012.77
2.523,-0.27,1.72,-0.20,-1.19,7.20,0.41,-0.38,-1.13,0.14,1012.77
2.524,-0.27,1.72,-0.20,-1.19,7.20,0.41,-0.38,-1.13,0.14,1012.76
2.561,-0.27,1.72,-0.20,9.12,4.77,3.96,-0.38,-1.13,0.14,1012.76
2.564,0.80,1.49,0.20,9.12,4.77,3.96,-0.38,-1.13,0.14,1012.76
2.566,0.80,1.49,0.20,9.12,4.77,3.96,-0.77,-0.31,0.24,1012.76
2.599,0.80,1.49,0.20,9.12,4.77,3.96,-0.77,-0.31,0.24,1012.75
2.601,0.80,1.49,0.20,7.76,7.15,1.02,-0.77,-0.31,0.24,1012.75
2.604,0.63,1.73,-0.12,7.76,7.15,1.02,-0.77,-0.31,0.24,1012.75
2.605,0.63,1.73,-0.12,7.76,7.15,1.02,0.48,0.68,-1.40,1012.75
2.637,-1.01,1.94,-0.66,7.76,7.15,1.02,0.48,0.68,-1.40,1012.75
2.638,-1.01,1.94,-0.66,7.76,7.15,1.02,2.05,-0.53,-3.62,1012.75
2.638,-1.01,1.94,-0.66,-6.70,9.55,-3.49,2.05,-0.53,-3.62,1012.75
2.639,-1.01,1.94,-0.66,-6.70,9.55,-3.49,2.05,-0.53,-3.62,1012.74
2.678,-0.19,1.50,-0.47,-6.70,9.55,-3.49,2.05,-0.53,-3.62,1012.74
2.681,-0.19,1.50,-0.47,-6.70,9.55,-3.49,1.79,-2.84,-2.83,1012.74
2.683,-0.19,1.50,-0.47,2.64,5.78,-1.41,1.79,-2.84,-2.83,1012.74
2.707,-0.19,1.50,-0.47,2.64,5.78,-1.41,1.79,-2.84,-2.83,1012.72
2.719,-0.12,1.14,-0.13,2.64,5.78,-1.41,1.79,-2.84,-2.83,1012.72
2.722,-0.12,1.14,-0.13,2.64,5.78,-1.41,1.16,-2.24,-2.60,1012.72
2.724,-0.12,1.14,-0.13,4.45,2.89,1.84,1.16,-2.24,-2.60,1012.72
2.758,-0.13,0.69,0.01,4.45,2.89,1.84,1.16,-2.24,-2.60,1012.72
2.761,-0.13,0.69,0.01,4.45,2.89,1.84,0.70,-0.69,-2.06,1012.72
2.762,-0.13,0.69,0.01,4.98,-0.93,3.16,0.70,-0.69,-2.06,1012.72
2.762,-0.13,0.69,0.01,4.98,-0.93,3.16,0.70,-0.69,-2.06,1012.71
2.796,-0.04,0.23,-0.03,4.98,-0.93,3.16,0.70,-0.69,-2.06,1012.71
2.798,-0.04,0.23,-0.03,4.98,-0.93,3.16,0.35,0.70,-0.96,1012.71
2.801,-0.04,0.23,-0.03,5.95,-5.05,3.07,0.35,0.70,-0.96,1012.71
2.827,-0.04,0.23,-0.03,5.95,-5.05,3.07,0.35,0.70,-0.96,1012.71
2.838,-0.04,0.23,-0.03,4.44,-6.16,2.68,0.35,0.70,-0.96,1012.71
2.839,-0.15,0.12,-0.10,4.44,-6.16,2.68,0.35,0.70,-0.96,1012.71
2.84,-0.15,0.12,-0.10,4.44,-6.16,2.68,-0.06,1.59,0.42,1012.71
2.876,-0.28,0.02,-0.08,4.44,-6.16,2.68,-0.06,1.59,0.42,1012.71
2.878,-0.28,0.02,-0.08,4.44,-6.16,2.68,-0.57,1.40,1.61,1012.71
2.88,-0.28,0.02,-0.08,2.46,-7.49,2.98,-0.57,1.40,1.61,1012.71
2.882,-0.28,0.02,-0.08,2.46,-7.49,2.98,-0.57,1.40,1.61,1012.71
2.916,-0.28,0.02,-0.08,1.42,-8.44,2.72,-0.57,1.40,1.61,1012.71
2.919,-0.28,-0.03,-0.09,1.42,-8.44,2.72,-0.57,1.40,1.61,1012.71
2.921,-0.28,-0.03,-0.09,1.42,-8.44,2.72,-0.88,1.05,2.53,1012.71
2.941,-0.28,-0.03,-0.09,1.42,-8.44,2.72,-0.88,1.05,2.53,1012.70
2.954,-0.46,0.12,-0.34,1.42,-8.44,2.72,-0.88,1.05,2.53,1012.70
2.958,-0.46,0.12,-0.34,1.42,-8.44,2.72,-0.92,1.16,2.97,1012.70
2.959,-0.46,0.12,-0.34,-1.42,-7.33,0.16,-0.92,1.16,2.97,1012.70
3.002,-0.72,0.43,-0.70,-1.42,-7.33,0.16,-0.92,1.16,2.97,1012.70
3.005,-0.72,0.43,-0.70,-1.42,-7.33,0.16,-0.66,1.09,2.58,1012.70
3.007,-0.72,0.43,-0.70,-4.97,-4.61,-3.39,-0.66,1.09,2.58,1012.70
3.009,-0.72,0.43,-0.70,-4.97,-4.61,-3.39,-0.66,1.09,2.58,1012.69
3.041,-1.04,0.41,-0.83,-4.97,-4.61,-3.39,-0.66,1.09,2.58,1012.69
3.043,-1.04,0.41,-0.83,-4.97,-4.61,-3.39,0.00,0.64,1.20,1012.69
3.044,-1.04,0.41,-0.83,-8.45,-4.84,-4.58,0.00,0.64,1.20,1012.69
3.061,-1.04,0.41,-0.83,-8.45,-4.84,-4.58,0.00,0.64,1.20,1012.68
3.072,-1.17,1.10,-0.82,-8.45,-4.84,-4.58,0.00,0.64,1.20,1012.68
3.073,-1.17,1.10,-0.82,-8.45,-4.84,-4.58,1.15,0.01,-0.16,1012.68
3.074,-1.17,1.10,-0.82,-9.44,2.13,-4.07,1.15,0.01,-0.16,1012.68
3.112,0.11,1.49,-0.60,-9.44,2.13,-4.07,1.15,0.01,-0.16,1012.68
3.115,0.11,1.49,-0.60,-9.44,2.13,-4.07,0.14,-1.53,-0.41,1012.68
3.115,0.11,1.49,-0.60,3.41,5.93,-1.88,0.14,-1.53,-0.41,1012.68
3.139,0.11,1.49,-0.60,3.41,5.93,-1.88,0.14,-1.53,-0.41,1012.68
3.151,-0.16,0.37,-0.67,3.41,5.93,-1.88,0.14,-1.53,-0.41,1012.68
3.153,-0.16,0.37,-0.67,3.41,5.93,-1.88,-0.42,0.82,-0.30,1012.68
3.154,-0.16,0.37,-0.67,0.70,-5.01,-2.63,-0.42,0.82,-0.30,1012.68
3.181,-0.16,0.37,-0.67,0.70,-5.01,-2.63,-0.42,0.82,-0.30,1012.70
3.216,-0.90,1.15,-0.56,0.70,-5.01,-2.63,-0.42,0.82,-0.30,1012.70
3.217,-0.90,1.15,-0.56,0.70,-5.01,-2.63,-0.36,1.21,-0.24,1012.70
3.218,-0.90,1.15,-0.56,-6.52,2.56,-1.57,-0.36,1.21,-0.24,1012.70
3.231,-0.15,1.08,-0.31,-6.52,2.56,-1.57,-0.36,1.21,-0.24,1012.70
3.232,-0.15,1.08,-0.31,-6.52,2.56,-1.57,-0.67,0.38,0.37,1012.70
3.232,-0.15,1.08,-0.31,0.62,1.65,0.72,-0.67,0.38,0.37,1012.70
3.253,-0.15,1.08,-0.31,0.62,1.65,0.72,-0.67,0.38,0.37,1012.71
3.273,-0.66,0.98,-0.31,0.62,1.65,0.72,-0.67,0.38,0.37,1012.71
3.276,-0.66,0.98,-0.31,-4.59,0.61,0.54,-0.67,0.38,0.37,1012.71
3.277,-0.66,0.98,-0.31,-4.59,0.61,0.54,-0.47,0.82,0.48,1012.71
3.315,-0.66,0.98,-0.31,-4.59,0.61,0.54,-0.47,0.82,0.48,1012.71
3.317,-0.32,0.94,-0.39,-4.59,0.61,0.54,-0.47,0.82,0.48,1012.71
3.319,-0.32,0.94,-0.39,-4.59,0.61,0.54,-0.43,-0.35,0.94,1012.71
3.32,-0.32,0.94,-0.39,-1.52,0.09,-0.33,-0.43,-0.35,0.94,1012.71
3.349,0.08,0.88,-0.37,-1.52,0.09,-0.33,-0.43,-0.35,0.94,1012.71
3.353,0.08,0.88,-0.37,-1.52,0.09,-0.33,-0.51,-0.65,1.03,1012.71
3.355,0.08,0.88,-0.37,2.01,-0.63,-0.42,-0.51,-0.65,1.03,1012.71
3.359,0.08,0.88,-0.37,2.01,-0.63,-0.42,-0.51,-0.65,1.03,1012.71
3.4,0.19,0.85,-0.25,2.01,-0.63,-0.42,-0.51,-0.65,1.03,1012.71
3.403,0.19,0.85,-0.25,2.01,-0.63,-0.42,-0.53,-0.27,0.80,1012.71
3.405,0.19,0.85,-0.25,2.79,-1.05,0.57,-0.53,-0.27,0.80,1012.71
3.444,0.19,0.85,-0.25,2.79,-1.05,0.57,-0.53,-0.27,0.80,1012.70
3.446,0.27,0.88,-0.10,2.79,-1.05,0.57,-0.53,-0.27,0.80,1012.70
3.447,0.27,0.88,-0.10,2.79,-1.05,0.57,-0.39,-0.23,0.52,1012.70
3.448,0.27,0.88,-0.10,3.44,-0.76,1.83,-0.39,-0.23,0.52,1012.70
3.468,0.24,0.95,-0.06,3.44,-0.76,1.83,-0.39,-0.23,0.52,1012.70
3.47,0.24,0.95,-0.06,3.44,-0.76,1.83,-0.08,0.05,0.13,1012.70
3.471,0.24,0.95,-0.06,3.03,-0.12,2.17,-0.08,0.05,0.13,1012.70
3.479,0.24,0.95,-0.06,3.03,-0.12,2.17,-0.08,0.05,0.13,1012.71
3.524,0.05,0.97,-0.23,3.03,-0.12,2.17,-0.08,0.05,0.13,1012.71
3.527,0.05,0.97,-0.23,3.03,-0.12,2.17,0.17,0.24,-0.29,1012.71
3.529,0.05,0.97,-0.23,1.21,0.13,0.53,0.17,0.24,-0.29,1012.71
3.587,0.05,0.97,-0.23,1.21,0.13,0.53,0.17,0.24,-0.29,1012.71
3.59,-0.08,1.01,-0.41,1.21,0.13,0.53,0.17,0.24,-0.29,1012.71
3.592,-0.08,1.01,-0.41,1.21,0.13,0.53,0.22,-0.01,-0.43,1012.71
3.593,-0.08,1.01,-0.41,0.10,0.56,-1.07,0.22,-0.01,-0.43,1012.71
3.595,-0.26,1.15,-0.46,0.10,0.56,-1.07,0.22,-0.01,-0.43,1012.71
3.595,-0.26,1.15,-0.46,0.10,0.56,-1.07,0.04,-0.34,-0.39,1012.71
3.596,-0.26,1.15,-0.46,-1.52,1.94,-1.55,0.04,-0.34,-0.39,1012.71
3.6,-0.26,1.15,-0.46,-1.52,1.94,-1.55,0.04,-0.34,-0.39,1012.71
3.642,-0.26,1.15,-0.46,-1.20,3.52,-1.32,0.04,-0.34,-0.39,1012.71
3.645,-0.25,1.32,-0.43,-1.20,3.52,-1.32,0.04,-0.34,-0.39,1012.71
3.646,-0.25,1.32,-0.43,-1.20,3.52,-1.32,-0.24,-0.80,-0.06,1012.71
3.725,-0.25,1.32,-0.43,-1.20,3.52,-1.32,-0.24,-0.80,-0.06,1012.71
3.727,-0.13,1.78,-0.20,-1.20,3.52,-1.32,-0.24,-0.80,-0.06,1012.71
3.727,-0.13,1.78,-0.20,-1.20,3.52,-1.32,-0.49,-0.95,0.20,1012.71
3.728,-0.13,1.78,-0.20,-0.05,7.82,0.65,-0.49,-0.95,0.20,1012.71
3.729,0.46,1.56,-0.03,-0.05,7.82,0.65,-0.49,-0.95,0.20,1012.71
3.729,0.46,1.56,-0.03,-0.05,7.82,0.65,-0.77,-0.74,0.17,1012.71
3.73,0.46,1.56,-0.03,5.65,5.49,1.95,-0.77,-0.74,0.17,1012.71
3.73,0.46,1.56,-0.03,5.65,5.49,1.95,-0.77,-0.74,0.17,1012.72
3.744,1.17,1.27,0.20,5.65,5.49,1.95,-0.77,-0.74,0.17,1012.72
3.745,1.17,1.27,0.20,5.65,5.49,1.95,-0.48,-0.72,-0.31,1012.72
3.746,1.17,1.27,0.20,12.53,2.52,3.95,-0.48,-0.72,-0.31,1012.72
3.779,1.17,1.27,0.20,12.53,2.52,3.95,-0.48,-0.72,-0.31,1012.71
3.784,-0.14,1.81,-0.60,12.53,2.52,3.95,-0.48,-0.72,-0.31,1012.71
3.785,-0.14,1.81,-0.60,12.53,2.52,3.95,1.26,0.96,-2.69,1012.71
3.787,-0.14,1.81,-0.60,0.72,7.96,-3.34,1.26,0.96,-2.69,1012.71
3.826,-1.13,1.53,-0.62,0.72,7.96,-3.34,1.26,0.96,-2.69,1012.71
3.828,-1.13,1.53,-0.62,0.72,7.96,-3.34,1.73,-0.89,-3.34,1012.71
3.83,-1.13,1.53,-0.62,-7.56,5.73,-2.94,1.73,-0.89,-3.34,1012.71
3.84,-1.13,1.53,-0.62,-7.56,5.73,-2.94,1.73,-0.89,-3.34,1012.71
3.867,0.13,1.30,-0.26,-7.56,5.73,-2.94,1.73,-0.89,-3.34,1012.71
3.869,0.13,1.30,-0.26,-7.56,5.73,-2.94,1.18,-3.00,-2.43,1012.71
3.87,0.13,1.30,-0.26,5.91,3.96,0.49,1.18,-3.00,-2.43,1012.71
3.904,0.13,1.30,-0.26,5.91,3.96,0.49,1.18,-3.00,-2.43,1012.70
3.908,-0.19,0.80,-0.07,5.91,3.96,0.49,1.18,-3.00,-2.43,1012.70
3.91,-0.19,0.80,-0.07,5.91,3.96,0.49,0.91,-1.08,-2.52,1012.70
3.912,-0.19,0.80,-0.07,3.77,-0.34,2.42,0.91,-1.08,-2.52,1012.70
3.942,-0.34,0.62,-0.15,3.77,-0.34,2.42,0.91,-1.08,-2.52,1012.70
3.943,-0.34,0.62,-0.15,3.77,-0.34,2.42,0.81,0.29,-1.80,1012.70
3.944,-0.34,0.62,-0.15,2.75,-1.52,1.90,0.81,0.29,-1.80,1012.70
3.978,-0.34,0.62,-0.15,2.75,-1.52,1.90,0.81,0.29,-1.80,1012.71
3.981,-0.19,0.48,-0.21,2.75,-1.52,1.90,0.81,0.29,-1.80,1012.71
3.982,-0.19,0.48,-0.21,2.75,-1.52,1.90,0.35,0.48,-0.67,1012.71
3.983,-0.19,0.48,-0.21,4.28,-2.69,1.60,0.35,0.48,-0.67,1012.71
4.02,-0.19,0.48,-0.21,4.28,-2.69,1.60,0.35,0.48,-0.67,1012.71
4.022,-0.15,0.21,-0.13,4.28,-2.69,1.60,0.35,0.48,-0.67,1012.71
4.024,-0.15,0.21,-0.13,4.28,-2.69,1.60,-0.26,0.81,0.32,1012.71
4.025,-0.15,0.21,-0.13,4.36,-5.33,2.37,-0.26,0.81,0.32,1012.71
4.061,-0.29,-0.00,-0.11,4.36,-5.33,2.37,-0.26,0.81,0.32,1012.71
4.063,-0.29,-0.00,-0.11,4.36,-5.33,2.37,-0.66,1.32,1.24,1012.71
4.065,-0.29,-0.00,-0.11,2.36,-7.64,2.68,-0.66,1.32,1.24,1012.71
4.079,-0.29,-0.00,-0.11,2.36,-7.64,2.68,-0.66,1.32,1.24,1012.71
4.104,-0.39,-0.04,-0.16,2.36,-7.64,2.68,-0.66,1.32,1.24,1012.71
4.109,-0.39,-0.04,-0.16,2.36,-7.64,2.68,-0.82,1.51,2.16,1012.71
4.111,-0.39,-0.04,-0.16,0.53,-8.45,2.16,-0.82,1.51,2.16,1012.71
4.145,-0.59,-0.07,-0.38,0.53,-8.45,2.16,-0.82,1.51,2.16,1012.71
4.15,-0.59,-0.07,-0.38,0.53,-8.45,2.16,-0.88,1.31,2.66,1012.71
4.153,-0.59,-0.07,-0.38,-2.47,-9.08,-0.13,-0.88,1.31,2.66,1012.71
4.155,-0.59,-0.07,-0.38,-2.47,-9.08,-0.13,-0.88,1.31,2.66,1012.69
4.18,-0.78,0.01,-0.51,-2.47,-9.08,-0.13,-0.88,1.31,2.66,1012.69
4.184,-0.78,0.01,-0.51,-2.47,-9.08,-0.13,-0.71,0.45,2.45,1012.69
4.186,-0.78,0.01,-0.51,-5.13,-8.54,-1.50,-0.71,0.45,2.45,1012.69
4.2,-0.78,0.01,-0.51,-5.13,-8.54,-1.50,-0.71,0.45,2.45,1012.68
4.22,-0.86,0.03,-0.42,-5.13,-8.54,-1.50,-0.71,0.45,2.45,1012.68
4.221,-0.86,0.03,-0.42,-5.13,-8.54,-1.50,-0.14,0.13,1.34,1012.68
4.222,-0.86,0.03,-0.42,-6.34,-8.38,-0.63,-0.14,0.13,1.34,1012.68
4.263,-0.82,0.71,-1.15,-6.34,-8.38,-0.63,-0.14,0.13,1.34,1012.68
4.267,-0.82,0.71,-1.15,-6.34,-8.38,-0.63,0.83,0.64,0.40,1012.68
4.269,-0.82,0.71,-1.15,-5.98,-1.51,-7.38,0.83,0.64,0.40,1012.68
4.271,-0.82,0.71,-1.15,-5.98,-1.51,-7.38,0.83,0.64,0.40,1012.68
4.299,-0.44,3.47,-0.54,-5.98,-1.51,-7.38,0.83,0.64,0.40,1012.68
4.301,-0.44,3.47,-0.54,-5.98,-1.51,-7.38,0.50,-0.13,-1.92,1012.68
4.302,-0.44,3.47,-0.54,-1.62,25.32,-1.24,0.50,-0.13,-1.92,1012.68
4.331,-0.44,3.47,-0.54,-1.62,25.32,-1.24,0.50,-0.13,-1.92,1012.68
4.339,-0.44,3.47,-0.54,3.56,-15.27,-1.12,0.50,-0.13,-1.92,1012.68
4.341,0.11,-0.69,-0.52,3.56,-15.27,-1.12,0.50,-0.13,-1.92,1012.68
4.342,0.11,-0.69,-0.52,3.56,-15.27,-1.12,-0.48,0.37,0.35,1012.68
4.377,-1.05,1.41,-0.60,3.56,-15.27,-1.12,-0.48,0.37,0.35,1012.68
4.381,-1.05,1.41,-0.60,3.56,-15.27,-1.12,-0.08,1.32,-0.54,1012.68
4.383,-1.05,1.41,-0.60,-7.71,5.22,-1.73,-0.08,1.32,-0.54,1012.68
4.385,-1.05,1.41,-0.60,-7.71,5.22,-1.73,-0.08,1.32,-0.54,1012.68
4.426,-0.29,1.09,-0.48,-7.71,5.22,-1.73,-0.08,1.32,-0.54,1012.68
4.43,-0.29,1.09,-0.48,-7.71,5.22,-1.73,-0.41,-0.03,0.23,1012.68
4.431,-0.29,1.09,-0.48,-0.33,1.96,-0.72,-0.41,-0.03,0.23,1012.68
4.473,-0.29,1.09,-0.48,-0.33,1.96,-0.72,-0.41,-0.03,0.23,1012.68
4.476,-0.29,1.09,-0.48,-1.92,-0.23,-0.14,-0.41,-0.03,0.23,1012.68
4.477,-0.42,0.88,-0.40,-1.92,-0.23,-0.14,-0.41,-0.03,0.23,1012.68
4.477,-0.42,0.88,-0.40,-1.92,-0.23,-0.14,-0.56,0.53,0.59,1012.68
4.494,-0.36,0.91,-0.29,-1.92,-0.23,-0.14,-0.56,0.53,0.59,1012.68
4.497,-0.36,0.91,-0.29,-1.92,-0.23,-0.14,-0.55,-0.08,0.71,1012.68
4.497,-0.36,0.91,-0.29,-1.54,-0.06,0.80,-0.55,-0.08,0.71,1012.68
4.498,-0.36,0.91,-0.29,-1.54,-0.06,0.80,-0.55,-0.08,0.71,1012.67
4.535,-0.06,0.95,-0.34,-1.54,-0.06,0.80,-0.55,-0.08,0.71,1012.67
4.538,-0.06,0.95,-0.34,-1.54,-0.06,0.80,-0.47,-0.36,0.88,1012.67
4.539,-0.06,0.95,-0.34,1.11,0.22,0.07,-0.47,-0.36,0.88,1012.67
4.561,-0.06,0.95,-0.34,1.11,0.22,0.07,-0.47,-0.36,0.88,1012.68
4.575,-0.08,0.83,-0.32,1.11,0.22,0.07,-0.47,-0.36,0.88,1012.68
4.577,-0.08,0.83,-0.32,1.11,0.22,0.07,-0.51,-0.27,0.82,1012.68
4.578,-0.08,0.83,-0.32,0.64,-1.06,0.05,-0.51,-0.27,0.82,1012.68
4.621,0.17,0.90,-0.23,0.64,-1.06,0.05,-0.51,-0.27,0.82,1012.68
4.624,0.17,0.90,-0.23,0.64,-1.06,0.05,-0.48,-0.21,0.75,1012.68
4.627,0.17,0.90,-0.23,2.86,-0.53,0.80,-0.48,-0.21,0.75,1012.68
4.629,0.17,0.90,-0.23,2.86,-0.53,0.80,-0.48,-0.21,0.75,1012.69
4.668,0.13,0.98,-0.10,2.86,-0.53,0.80,-0.48,-0.21,0.75,1012.69
4.669,0.13,0.98,-0.10,2.86,-0.53,0.80,-0.31,0.01,0.39,1012.69
4.67,0.13,0.98,-0.10,2.25,0.20,1.85,-0.31,0.01,0.39,1012.69
4.677,0.13,0.98,-0.10,2.25,0.20,1.85,-0.31,0.01,0.39,1012.70
4.691,0.11,0.98,-0.14,2.25,0.20,1.85,-0.31,0.01,0.39,1012.70
4.692,0.11,0.98,-0.14,2.25,0.20,1.85,-0.04,0.04,0.07,1012.70
4.693,0.11,0.98,-0.14,2.04,0.18,1.50,-0.04,0.04,0.07,1012.70
4.732,0.11,1.01,-0.19,2.04,0.18,1.50,-0.04,0.04,0.07,1012.70
4.736,0.11,1.01,-0.19,2.04,0.18,1.50,0.16,-0.14,-0.25,1012.70
4.738,0.11,1.01,-0.19,2.05,0.53,0.98,0.16,-0.14,-0.25,1012.70
4.74,0.11,1.01,-0.19,2.05,0.53,0.98,0.16,-0.14,-0.25,1012.70
4.775,-0.03,1.07,-0.29,2.05,0.53,0.98,0.16,-0.14,-0.25,1012.70
4.778,-0.03,1.07,-0.29,2.05,0.53,0.98,0.25,-0.22,-0.49,1012.70
4.779,-0.03,1.07,-0.29,0.91,1.14,0.10,0.25,-0.22,-0.49,1012.70
4.798,-0.03,1.07,-0.29,0.91,1.14,0.10,0.25,-0.22,-0.49,1012.69
4.818,-0.19,1.10,-0.43,0.91,1.14,0.10,0.25,-0.22,-0.49,1012.69
4.82,-0.19,1.10,-0.43,0.91,1.14,0.10,0.17,-0.40,-0.51,1012.69
4.822,-0.19,1.10,-0.43,-0.41,1.48,-1.16,0.17,-0.40,-0.51,1012.69
4.853,-0.26,1.32,-0.38,-0.41,1.48,-1.16,0.17,-0.40,-0.51,1012.69
4.855,-0.26,1.32,-0.38,-0.41,1.48,-1.16,-0.04,-0.71,-0.29,1012.69
4.856,-0.26,1.32,-0.38,-0.90,3.59,-0.73,-0.04,-0.71,-0.29,1012.69
4.858,-0.26,1.32,-0.38,-0.90,3.59,-0.73,-0.04,-0.71,-0.29,1012.67
4.891,-0.34,1.61,-0.05,-0.90,3.59,-0.73,-0.04,-0.71,-0.29,1012.67
4.894,-0.34,1.61,-0.05,-0.90,3.59,-0.73,-0.26,-0.98,-0.14,1012.67
4.896,-0.34,1.61,-0.05,-1.54,6.27,2.29,-0.26,-0.98,-0.14,1012.67
4.92,-0.34,1.61,-0.05,-1.54,6.27,2.29,-0.26,-0.98,-0.14,1012.67
4.929,0.37,1.64,0.07,-1.54,6.27,2.29,-0.26,-0.98,-0.14,1012.67
4.93,0.37,1.64,0.07,-1.54,6.27,2.29,-0.50,-0.96,0.01,1012.67
4.931,0.37,1.64,0.07,5.43,6.39,3.15,-0.50,-0.96,0.01,1012.67
4.969,1.03,1.35,-0.01,5.43,6.39,3.15,-0.50,-0.96,0.01,1012.67
4.971,1.03,1.35,-0.01,5.43,6.39,3.15,-0.49,0.19,-0.42,1012.67
4.972,1.03,1.35,-0.01,11.90,3.50,2.12,-0.49,0.19,-0.42,1012.67
4.977,1.03,1.35,-0.01,11.90,3.50,2.12,-0.49,0.19,-0.42,1012.67
5.024,0.19,1.48,-0.52,11.90,3.50,2.12,-0.49,0.19,-0.42,1012.67
5.027,0.19,1.48,-0.52,11.90,3.50,2.12,0.42,2.66,-2.32,1012.67
5.029,0.19,1.48,-0.52,4.19,4.95,-2.39,0.42,2.66,-2.32,1012.67
5.057,0.19,1.48,-0.52,4.19,4.95,-2.39,0.42,2.66,-2.32,1012.66
5.058,-1.18,1.29,-0.70,4.19,4.95,-2.39,0.42,2.66,-2.32,1012.66
5.058,-1.18,1.29,-0.70,4.19,4.95,-2.39,1.11,2.57,-3.76,1012.66
5.058,-1.18,1.29,-0.70,-8.01,3.60,-3.43,1.11,2.57,-3.76,1012.66
5.092,-0.41,1.24,-0.52,-8.01,3.60,-3.43,1.11,2.57,-3.76,1012.66
5.094,-0.41,1.24,-0.52,-8.01,3.60,-3.43,1.02,-0.42,-3.07,1012.66
5.094,-0.41,1.24,-0.52,0.62,3.65,-1.37,1.02,-0.42,-3.07,1012.66
5.098,-0.41,1.24,-0.52,0.62,3.65,-1.37,1.02,-0.42,-3.07,1012.65
5.127,0.06,0.98,-0.40,0.62,3.65,-1.37,1.02,-0.42,-3.07,1012.65
5.128,0.06,0.98,-0.40,0.62,3.65,-1.37,0.63,-0.38,-3.10,1012.65
5.129,0.06,0.98,-0.40,6.18,1.83,-0.12,0.63,-0.38,-3.10,1012.65
5.157,0.06,0.98,-0.40,6.18,1.83,-0.12,0.63,-0.38,-3.10,1012.64
5.168,-0.35,0.70,-0.38,6.18,1.83,-0.12,0.63,-0.38,-3.10,1012.64
5.17,-0.35,0.70,-0.38,6.18,1.83,-0.12,0.36,1.06,-3.35,1012.64
5.172,-0.35,0.70,-0.38,2.94,-0.06,0.46,0.36,1.06,-3.35,1012.64
5.227,-0.29,0.80,-0.46,2.94,-0.06,0.46,0.36,1.06,-3.35,1012.64
5.231,-0.29,0.80,-0.46,2.94,-0.06,0.46,0.08,1.27,-2.92,1012.64
5.233,-0.29,0.80,-0.46,4.02,1.65,0.01,0.08,1.27,-2.92,1012.64
5.235,-0.29,0.80,-0.46,4.02,1.65,0.01,0.08,1.27,-2.92,1012.64
5.271,0.01,0.69,-0.56,4.02,1.65,0.01,0.08,1.27,-2.92,1012.64
5.273,0.01,0.69,-0.56,4.02,1.65,0.01,-0.25,1.69,-2.30,1012.64
5.276,0.01,0.69,-0.56,7.01,1.10,-0.48,-0.25,1.69,-2.30,1012.64
5.28,0.01,0.69,-0.56,7.01,1.10,-0.48,-0.25,1.69,-2.30,1012.65
5.287,-0.13,0.31,-0.61,7.01,1.10,-0.48,-0.25,1.69,-2.30,1012.65
5.289,-0.13,0.31,-0.61,7.01,1.10,-0.48,-0.65,1.82,-1.50,1012.65
5.291,-0.13,0.31,-0.61,5.50,-2.24,-0.67,-0.65,1.82,-1.50,1012.65
5.326,-0.20,0.29,-0.59,5.50,-2.24,-0.67,-0.65,1.82,-1.50,1012.65
5.33,-0.20,0.29,-0.59,5.50,-2.24,-0.67,-1.23,1.26,-0.14,1012.65
5.332,-0.20,0.29,-0.59,4.46,-2.63,-0.39,-1.23,1.26,-0.14,1012.65
5.356,-0.20,0.29,-0.59,4.46,-2.63,-0.39,-1.23,1.26,-0.14,1012.65
5.363,-0.10,0.24,-0.54,4.46,-2.63,-0.39,-1.23,1.26,-0.14,1012.65
5.364,-0.10,0.24,-0.54,4.46,-2.63,-0.39,-1.86,0.89,1.34,1012.65
5.366,-0.10,0.24,-0.54,4.86,-3.82,-0.10,-1.86,0.89,1.34,1012.65
5.397,-0.10,0.24,-0.54,4.86,-3.82,-0.10,-1.86,0.89,1.34,1012.63
5.425,-0.15,0.20,-0.49,4.86,-3.82,-0.10,-1.86,0.89,1.34,1012.63
5.428,-0.15,0.20,-0.49,4.86,-3.82,-0.10,-2.29,1.37,2.36,1012.63
5.43,-0.15,0.20,-0.49,3.49,-5.08,0.13,-2.29,1.37,2.36,1012.63
5.467,-0.38,0.35,-0.52,3.49,-5.08,0.13,-2.29,1.37,2.36,1012.63
5.47,-0.38,0.35,-0.52,3.49,-5.08,0.13,-2.48,1.70,2.91,1012.63
5.472,-0.38,0.35,-0.52,-0.01,-4.44,-0.64,-2.48,1.70,2.91,1012.63
5.473,-0.38,0.35,-0.52,-0.01,-4.44,-0.64,-2.48,1.70,2.91,1012.62
5.482,-0.53,0.43,-0.49,-0.01,-4.44,-0.64,-2.48,1.70,2.91,1012.62
5.485,-0.53,0.43,-0.49,-0.01,-4.44,-0.64,-2.58,1.30,3.03,1012.62
5.485,-0.53,0.43,-0.49,-2.60,-4.41,-1.03,-2.58,1.30,3.03,1012.62
5.516,-0.53,0.43,-0.49,-2.60,-4.41,-1.03,-2.58,1.30,3.03,1012.61
5.544,-0.53,0.43,-0.49,-3.75,-4.52,-1.57,-2.58,1.30,3.03,1012.61
5.546,-0.54,0.47,-0.48,-3.75,-4.52,-1.57,-2.58,1.30,3.03,1012.61
5.546,-0.54,0.47,-0.48,-3.75,-4.52,-1.57,-2.36,1.18,2.63,1012.61
5.561,-0.59,0.64,-0.74,-3.75,-4.52,-1.57,-2.36,1.18,2.63,1012.61
5.563,-0.59,0.64,-0.74,-3.75,-4.52,-1.57,-1.69,2.15,1.50,1012.61
5.564,-0.59,0.64,-0.74,-4.93,-3.06,-4.65,-1.69,2.15,1.50,1012.61
5.576,-0.59,0.64,-0.74,-4.93,-3.06,-4.65,-1.69,2.15,1.50,1012.61
5.602,-0.92,0.55,-0.82,-4.93,-3.06,-4.65,-1.69,2.15,1.50,1012.61
5.604,-0.92,0.55,-0.82,-4.93,-3.06,-4.65,-0.90,2.46,-0.02,1012.61
5.606,-0.92,0.55,-0.82,-8.23,-3.92,-5.53,-0.90,2.46,-0.02,1012.61
5.638,-0.92,0.55,-0.82,-8.23,-3.92,-5.53,-0.90,2.46,-0.02,1012.59
5.648,-0.92,0.55,-0.82,-7.24,-6.64,-4.40,-0.90,2.46,-0.02,1012.59
5.65,-0.84,0.26,-0.70,-7.24,-6.64,-4.40,-0.90,2.46,-0.02,1012.59
5.655,-0.84,0.26,-0.70,-7.24,-6.64,-4.40,-0.26,0.95,-0.60,1012.59
5.68,-0.16,2.37,-0.73,-7.24,-6.64,-4.40,-0.26,0.95,-0.60,1012.59
5.682,-0.16,2.37,-0.73,-7.24,-6.64,-4.40,0.70,0.07,-0.66,1012.59
5.683,-0.16,2.37,-0.73,-0.33,13.86,-4.32,0.70,0.07,-0.66,1012.59
5.695,-0.16,2.37,-0.73,-0.33,13.86,-4.32,0.70,0.07,-0.66,1012.61
5.722,-0.16,2.37,-0.73,-1.76,1.83,1.08,0.70,0.07,-0.66,1012.61
5.723,-0.36,1.14,-0.17,-1.76,1.83,1.08,0.70,0.07,-0.66,1012.61
5.724,-0.36,1.14,-0.17,-1.76,1.83,1.08,0.04,-0.38,-1.23,1012.61
5.755,-0.36,1.14,-0.17,-1.76,1.83,1.08,0.04,-0.38,-1.23,1012.62
5.759,-0.35,0.16,-0.21,-1.76,1.83,1.08,0.04,-0.38,-1.23,1012.62
5.76,-0.35,0.16,-0.21,-1.76,1.83,1.08,0.15,1.58,-0.22,1012.62
5.761,-0.35,0.16,-0.21,-1.67,-7.56,0.90,0.15,1.58,-0.22,1012.62
5.8,-0.97,1.72,-0.60,-1.67,-7.56,0.90,0.15,1.58,-0.22,1012.62
5.803,-0.97,1.72,-0.60,-1.67,-7.56,0.90,0.33,0.95,-0.66,1012.62
5.805,-0.97,1.72,-0.60,-7.55,7.66,-2.69,0.33,0.95,-0.66,1012.62
5.83,-0.97,1.72,-0.60,-7.55,7.66,-2.69,0.33,0.95,-0.66,1012.62
5.867,-0.30,0.70,-0.38,-7.55,7.66,-2.69,0.33,0.95,-0.66,1012.62
5.87,-0.30,0.70,-0.38,-7.55,7.66,-2.69,-0.15,-0.06,0.61,1012.62
5.871,-0.30,0.70,-0.38,-1.18,-2.39,-0.61,-0.15,-0.06,0.61,1012.62
5.875,-0.30,0.70,-0.38,-1.18,-2.39,-0.61,-0.15,-0.06,0.61,1012.63
5.878,-0.29,1.05,-0.30,-1.18,-2.39,-0.61,-0.15,-0.06,0.61,1012.63
5.879,-0.29,1.05,-0.30,-1.18,-2.39,-0.61,-0.22,-0.17,0.50,1012.63
5.881,-0.29,1.05,-0.30,-1.24,1.05,0.10,-0.22,-0.17,0.50,1012.63
5.918,-0.29,1.05,-0.30,-0.55,-0.53,0.53,-0.22,-0.17,0.50,1012.63
5.92,-0.20,0.90,-0.24,-0.55,-0.53,0.53,-0.22,-0.17,0.50,1012.63
5.921,-0.20,0.90,-0.24,-0.55,-0.53,0.53,-0.30,0.12,0.72,1012.63
5.953,-0.20,0.90,-0.24,-0.55,-0.53,0.53,-0.30,0.12,0.72,1012.63
5.959,-0.20,0.90,-0.24,-0.94,0.06,0.37,-0.30,0.12,0.72,1012.63
5.96,-0.21,0.97,-0.25,-0.94,0.06,0.37,-0.30,0.12,0.72,1012.63
5.961,-0.21,0.97,-0.25,-0.94,0.06,0.37,-0.31,-0.15,0.67,1012.63
5.996,0.17,0.89,-0.13,-0.94,0.06,0.37,-0.31,-0.15,0.67,1012.63
5.999,0.17,0.89,-0.13,-0.94,0.06,0.37,-0.27,-0.33,0.74,1012.63
6.001,0.17,0.89,-0.13,-0.94,0.06,0.37,-0.27,-0.33,0.74,1012.63
6.003,0.17,0.89,-0.13,2.54,-0.70,1.35,-0.27,-0.33,0.74,1012.63
6.045,0.17,0.89,-0.13,2.16,0.06,1.40,-0.27,-0.33,0.74,1012.63
6.047,0.15,0.97,-0.12,2.16,0.06,1.40,-0.27,-0.33,0.74,1012.63
6.048,0.15,0.97,-0.12,2.16,0.06,1.40,-0.10,0.19,0.38,1012.63
6.067,0.15,0.97,-0.12,2.16,0.06,1.40,-0.10,0.19,0.38,1012.61
6.075,0.05,0.93,-0.11,2.16,0.06,1.40,-0.10,0.19,0.38,1012.61
6.077,0.05,0.93,-0.11,2.16,0.06,1.40,0.10,0.24,0.06,1012.61
6.078,0.05,0.93,-0.11,1.12,-0.37,1.50,0.10,0.24,0.06,1012.61
6.116,0.00,0.96,-0.24,1.12,-0.37,1.50,0.10,0.24,0.06,1012.61
6.119,0.00,0.96,-0.24,1.12,-0.37,1.50,0.27,0.20,-0.22,1012.61
6.12,0.00,0.96,-0.24,1.12,-0.37,1.50,0.27,0.20,-0.22,1012.62
6.122,0.00,0.96,-0.24,0.70,-0.01,0.32,0.27,0.20,-0.22,1012.62
6.164,0.02,1.03,-0.20,0.70,-0.01,0.32,0.27,0.20,-0.22,1012.62
6.166,0.02,1.03,-0.20,0.70,-0.01,0.32,0.31,0.11,-0.41,1012.62
6.167,0.02,1.03,-0.20,0.94,0.71,0.87,0.31,0.11,-0.41,1012.62
6.175,0.02,1.03,-0.20,0.94,0.71,0.87,0.31,0.11,-0.41,1012.63
6.194,-0.04,1.04,-0.22,0.94,0.71,0.87,0.31,0.11,-0.41,1012.63
6.196,-0.04,1.04,-0.22,0.94,0.71,0.87,0.38,-0.10,-0.55,1012.63
6.198,-0.04,1.04,-0.22,0.57,0.79,0.82,0.38,-0.10,-0.55,1012.63
6.243,0.04,1.06,-0.43,0.57,0.79,0.82,0.38,-0.10,-0.55,1012.63
6.247,0.04,1.06,-0.43,0.57,0.79,0.82,0.37,0.01,-0.66,1012.63
6.249,0.04,1.06,-0.43,0.57,0.79,0.82,0.37,0.01,-0.66,1012.63
6.251,0.04,1.06,-0.43,1.56,1.05,-1.12,0.37,0.01,-0.66,1012.63
6.277,0.04,1.06,-0.43,0.40,3.17,-0.85,0.37,0.01,-0.66,1012.63
6.28,-0.11,1.27,-0.41,0.40,3.17,-0.85,0.37,0.01,-0.66,1012.63
6.28,-0.11,1.27,-0.41,0.40,3.17,-0.85,0.23,-0.20,-0.81,1012.63
6.294,-0.11,1.27,-0.41,0.40,3.17,-0.85,0.23,-0.20,-0.81,1012.62
6.312,-0.40,1.59,-0.14,0.40,3.17,-0.85,0.23,-0.20,-0.81,1012.62
6.319,-0.40,1.59,-0.14,-2.04,6.25,1.72,0.23,-0.20,-0.81,1012.62
6.32,-0.40,1.59,-0.14,-2.04,6.25,1.72,0.02,-0.37,-0.79,1012.62
6.351,-0.03,1.63,0.16,-2.04,6.25,1.72,0.02,-0.37,-0.79,1012.62
6.353,-0.03,1.63,0.16,-2.04,6.25,1.72,-0.26,-0.56,-0.73,1012.62
6.356,-0.03,1.63,0.16,-2.04,6.25,1.72,-0.26,-0.56,-0.73,1012.61
6.357,-0.03,1.63,0.16,1.87,6.59,4.52,-0.26,-0.56,-0.73,1012.61
6.39,0.48,1.52,0.01,1.87,6.59,4.52,-0.26,-0.56,-0.73,1012.61
6.391,0.48,1.52,0.01,1.87,6.59,4.52,-0.41,-0.01,-0.94,1012.61
6.393,0.48,1.52,0.01,7.15,5.44,2.81,-0.41,-0.01,-0.94,1012.61
6.414,0.48,1.52,0.01,7.15,5.44,2.81,-0.41,-0.01,-0.94,1012.61
6.432,0.76,1.17,-0.11,7.15,5.44,2.81,-0.41,-0.01,-0.94,1012.61
6.434,0.76,1.17,-0.11,7.15,5.44,2.81,-0.27,1.22,-1.46,1012.61
6.435,0.76,1.17,-0.11,10.13,2.10,1.64,-0.27,1.22,-1.46,1012.61
6.472,0.76,1.17,-0.11,10.13,2.10,1.64,-0.27,1.22,-1.46,1012.60
6.511,0.76,1.17,-0.11,10.13,2.10,1.64,0.47,4.03,-2.99,1012.60
6.512,0.76,1.17,-0.11,10.13,2.10,1.64,-0.01,2.92,-3.69,1012.60
6.513,0.76,1.17,-0.11,10.56,2.47,2.26,-0.01,2.92,-3.69,1012.60
6.514,0.76,1.17,-0.11,11.23,2.93,2.61,-0.01,2.92,-3.69,1012.60
6.533,0.76,1.17,-0.11,11.23,2.93,2.61,-0.01,2.92,-3.69,1012.60
6.547,0.76,1.17,-0.11,11.23,2.93,2.61,-0.51,-0.28,-1.94,1012.60
6.549,0.76,1.17,-0.11,11.72,3.11,2.35,-0.51,-0.28,-1.94,1012.60
6.591,0.76,1.17,-0.11,11.72,3.11,2.35,-1.13,-0.09,-1.98,1012.60
6.594,0.76,1.17,-0.11,12.17,3.27,1.93,-1.13,-0.09,-1.98,1012.60
6.598,0.76,1.17,-0.11,12.17,3.27,1.93,-1.13,-0.09,-1.98,1012.61
6.612,0.19,1.00,-0.68,12.17,3.27,1.93,-1.13,-0.09,-1.98,1012.61
6.63,0.19,1.00,-0.68,12.17,3.27,1.93,-1.43,1.24,-1.75,1012.61
6.634,0.19,1.00,-0.68,6.85,1.75,-3.85,-1.43,1.24,-1.75,1012.61
6.672,0.19,1.00,-0.68,6.85,1.75,-3.85,-1.43,1.24,-1.75,1012.62
6.675,-0.12,0.55,-0.50,6.85,1.75,-3.85,-1.43,1.24,-1.75,1012.62
6.676,-0.12,0.55,-0.50,6.85,1.75,-3.85,-1.67,1.96,-0.99,1012.62
6.677,-0.12,0.55,-0.50,3.83,-2.62,-2.13,-1.67,1.96,-0.99,1012.62
6.714,-0.12,0.55,-0.50,3.83,-2.62,-2.13,-1.95,2.95,-0.44,1012.62
6.715,-0.12,0.55,-0.50,3.59,-2.70,-2.13,-1.95,2.95,-0.44,1012.62
6.716,-0.12,0.55,-0.50,3.59,-2.70,-2.13,-1.95,2.95,-0.44,1012.61
6.739,0.07,0.38,-0.63,3.59,-2.70,-2.13,-1.95,2.95,-0.44,1012.61
6.746,0.07,0.38,-0.63,3.59,-2.70,-2.13,-2.25,3.33,0.05,1012.61
6.746,0.07,0.38,-0.63,4.99,-4.55,-3.46,-2.25,3.33,0.05,1012.61
6.776,0.07,0.38,-0.63,4.99,-4.55,-3.46,-2.25,3.33,0.05,1012.60
6.788,-0.17,0.33,-0.72,4.99,-4.55,-3.46,-2.25,3.33,0.05,1012.60
6.79,-0.17,0.33,-0.72,4.99,-4.55,-3.46,-2.52,2.60,0.72,1012.60
6.792,-0.17,0.33,-0.72,2.09,-5.28,-4.71,-2.52,2.60,0.72,1012.60
6.827,-0.17,0.33,-0.72,2.09,-5.28,-4.71,-2.55,2.17,1.51,1012.60
6.829,-0.17,0.33,-0.72,1.37,-5.60,-5.20,-2.55,2.17,1.51,1012.60
6.836,-0.17,0.33,-0.72,1.37,-5.60,-5.20,-2.55,2.17,1.51,1012.60
6.855,-0.31,0.29,-0.67,1.37,-5.60,-5.20,-2.55,2.17,1.51,1012.60
6.867,-0.31,0.29,-0.67,1.37,-5.60,-5.20,-2.38,2.61,2.27,1012.60
6.868,-0.31,0.29,-0.67,-0.94,-6.24,-5.18,-2.38,2.61,2.27,1012.60
6.896,-0.31,0.29,-0.67,-0.94,-6.24,-5.18,-2.38,2.61,2.27,1012.59
6.91,-0.24,0.46,-0.52,-0.94,-6.24,-5.18,-2.38,2.61,2.27,1012.59
6.913,-0.24,0.46,-0.52,-0.94,-6.24,-5.18,-2.16,3.72,2.54,1012.59
6.915,-0.24,0.46,-0.52,-1.32,-4.80,-4.19,-2.16,3.72,2.54,1012.59
6.965,-0.24,0.46,-0.52,-1.32,-4.80,-4.19,-2.21,4.77,2.29,1012.59
6.968,-0.24,0.46,-0.52,-2.23,-4.82,-4.82,-2.21,4.77,2.29,1012.59
6.97,-0.24,0.46,-0.52,-2.23,-4.82,-4.82,-2.21,4.77,2.29,1012.60
6.972,-0.22,0.97,-0.61,-2.23,-4.82,-4.82,-2.21,4.77,2.29,1012.60
7.007,-0.22,0.97,-0.61,-2.23,-4.82,-4.82,-2.30,4.09,1.86,1012.60
7.011,-0.22,0.97,-0.61,-2.61,0.21,-6.47,-2.30,4.09,1.86,1012.60
7.015,-0.22,0.97,-0.61,-2.61,0.21,-6.47,-2.30,4.09,1.86,1012.59
7.026,-0.59,1.19,-0.66,-2.61,0.21,-6.47,-2.30,4.09,1.86,1012.59
7.028,-0.59,1.19,-0.66,-2.61,0.21,-6.47,-1.72,2.47,1.37,1012.59
7.028,-0.59,1.19,-0.66,-6.52,2.48,-7.59,-1.72,2.47,1.37,1012.59
7.07,-0.59,1.19,-0.66,-6.52,2.48,-7.59,-0.48,2.24,0.85,1012.59
7.073,-0.59,1.19,-0.66,-6.60,2.49,-7.71,-0.48,2.24,0.85,1012.59
7.076,-0.59,1.19,-0.66,-6.60,2.49,-7.71,-0.48,2.24,0.85,1012.59
7.083,-0.25,0.99,-0.41,-6.60,2.49,-7.71,-0.48,2.24,0.85,1012.59
7.102,-0.25,0.99,-0.41,-6.60,2.49,-7.71,1.26,2.77,-0.73,1012.59
7.104,-0.25,0.99,-0.41,-2.87,0.43,-4.79,1.26,2.77,-0.73,1012.59
7.139,-0.25,0.99,-0.41,-2.87,0.43,-4.79,1.26,2.77,-0.73,1012.59
7.145,-0.25,0.99,-0.41,-6.29,0.66,-9.52,1.26,2.77,-0.73,1012.59
7.148,-0.64,1.02,-0.94,-6.29,0.66,-9.52,1.26,2.77,-0.73,1012.59
7.149,-0.64,1.02,-0.94,-6.29,0.66,-9.52,0.73,-0.33,-0.79,1012.59
7.188,-0.64,1.02,-0.94,-6.29,0.66,-9.52,0.72,-1.17,0.96,1012.59
7.19,-0.64,1.02,-0.94,-6.54,0.65,-9.09,0.72,-1.17,0.96,1012.59
7.195,-0.64,1.02,-0.94,-6.54,0.65,-9.09,0.72,-1.17,0.96,1012.60
7.201,0.16,1.48,0.33,-6.54,0.65,-9.09,0.72,-1.17,0.96,1012.60
7.221,0.16,1.48,0.33,-6.54,0.65,-9.09,0.55,2.76,-0.27,1012.60
7.225,0.16,1.48,0.33,1.39,5.12,3.44,0.55,2.76,-0.27,1012.60
7.254,0.16,1.48,0.33,1.39,5.12,3.44,0.55,2.76,-0.27,1012.61
7.284,-0.13,0.86,-0.37,1.39,5.12,3.44,0.55,2.76,-0.27,1012.61
7.285,-0.13,0.86,-0.37,1.39,5.12,3.44,0.22,0.80,-0.04,1012.61
7.286,-0.13,0.86,-0.37,-1.45,-0.99,-3.29,0.22,0.80,-0.04,1012.61
7.3,-0.13,0.86,-0.37,-1.45,-0.99,-3.29,-0.08,-0.77,0.62,1012.61
7.301,-0.13,0.86,-0.37,-1.64,-0.96,-3.26,-0.08,-0.77,0.62,1012.61
7.313,-0.13,0.86,-0.37,-1.64,-0.96,-3.26,-0.08,-0.77,0.62,1012.61
7.32,-0.05,1.05,-0.19,-1.64,-0.96,-3.26,-0.08,-0.77,0.62,1012.61
7.347,-0.05,1.05,-0.19,-1.64,-0.96,-3.26,-0.13,1.00,0.09,1012.61
7.35,-0.05,1.05,-0.19,-0.92,0.90,-1.56,-0.13,1.00,0.09,1012.61
7.383,-0.05,1.05,-0.19,-0.92,0.90,-1.56,-0.13,1.00,0.09,1012.60
7.385,-0.11,1.00,-0.16,-0.92,0.90,-1.56,-0.13,1.00,0.09,1012.60
7.386,-0.11,1.00,-0.16,-0.92,0.90,-1.56,-0.24,0.09,0.23,1012.60
7.387,-0.11,1.00,-0.16,-1.51,0.38,-1.29,-0.24,0.09,0.23,1012.60
7.424,-0.11,1.00,-0.16,-1.62,0.38,-1.33,-0.24,0.09,0.23,1012.60
7.427,-0.11,1.00,-0.16,-1.62,0.38,-1.33,-0.21,-0.64,0.37,1012.60
7.433,-0.11,1.00,-0.16,-1.62,0.38,-1.33,-0.21,-0.64,0.37,1012.59
7.438,0.09,0.99,-0.01,-1.62,0.38,-1.33,-0.21,-0.64,0.37,1012.59
7.486,0.09,0.99,-0.01,-1.62,0.38,-1.33,-0.12,0.27,0.08,1012.59
7.49,0.09,0.99,-0.01,0.27,0.31,0.10,-0.12,0.27,0.08,1012.59
7.494,0.09,0.99,-0.01,0.27,0.31,0.10,-0.12,0.27,0.08,1012.59
7.498,0.10,1.01,-0.06,0.27,0.31,0.10,-0.12,0.27,0.08,1012.59
7.499,0.10,1.01,-0.06,0.27,0.31,0.10,-0.13,-0.28,0.04,1012.59
7.499,0.10,1.01,-0.06,0.38,0.43,-0.47,-0.13,-0.28,0.04,1012.59
7.539,0.10,1.01,-0.06,0.39,0.42,-0.45,-0.13,-0.28,0.04,1012.59
7.545,0.10,1.01,-0.06,0.39,0.42,-0.45,-0.02,-0.72,-0.03,1012.59
7.553,0.10,1.01,-0.06,0.39,0.42,-0.45,-0.02,-0.72,-0.03,1012.60
7.556,0.14,1.03,-0.00,0.39,0.42,-0.45,-0.02,-0.72,-0.03,1012.60
7.577,0.14,1.03,-0.00,0.39,0.42,-0.45,-0.03,-0.51,-0.15,1012.60
7.579,0.14,1.03,-0.00,0.80,0.66,0.12,-0.03,-0.51,-0.15,1012.60
7.626,0.14,1.03,-0.00,0.80,0.66,0.12,-0.03,-0.51,-0.15,1012.61
7.629,0.02,1.00,-0.07,0.80,0.66,0.12,-0.03,-0.51,-0.15,1012.61
7.631,0.02,1.00,-0.07,0.80,0.66,0.12,-0.02,-0.60,0.01,1012.61
7.633,0.02,1.00,-0.07,-0.36,0.33,-0.46,-0.02,-0.60,0.01,1012.61
7.668,0.02,1.00,-0.07,-0.36,0.33,-0.46,0.11,-0.56,-0.11,1012.61
7.67,0.02,1.00,-0.07,-0.31,0.33,-0.40,0.11,-0.56,-0.11,1012.61
7.674,0.02,1.00,-0.07,-0.31,0.33,-0.40,0.11,-0.56,-0.11,1012.60
7.677,-0.01,1.02,0.05,-0.31,0.33,-0.40,0.11,-0.56,-0.11,1012.60
7.695,-0.01,1.02,0.05,-0.31,0.33,-0.40,0.05,-1.03,-0.07,1012.60
7.698,-0.01,1.02,0.05,-0.54,0.51,0.73,0.05,-1.03,-0.07,1012.60
7.746,-0.01,1.02,0.05,-0.54,0.51,0.73,0.05,-1.03,-0.07,1012.60
7.75,0.13,0.99,-0.21,-0.54,0.51,0.73,0.05,-1.03,-0.07,1012.60
7.752,0.13,0.99,-0.21,-0.54,0.51,0.73,-0.19,-0.66,-0.19,1012.60
7.754,0.13,0.99,-0.21,0.85,0.20,-1.83,-0.19,-0.66,-0.19,1012.60
7.779,0.13,0.99,-0.21,0.96,0.19,-1.91,-0.19,-0.66,-0.19,1012.60
7.781,0.13,0.99,-0.21,0.96,0.19,-1.91,-0.31,-0.17,-0.34,1012.60
7.793,0.06,0.99,-0.09,0.96,0.19,-1.91,-0.31,-0.17,-0.34,1012.60
7.795,0.06,0.99,-0.09,0.96,0.19,-1.91,-0.31,-0.17,-0.34,1012.60
7.814,0.06,0.99,-0.09,0.96,0.19,-1.91,-0.30,0.08,-0.34,1012.60
7.817,0.06,0.99,-0.09,0.46,0.18,-0.86,-0.30,0.08,-0.34,1012.60
7.853,-0.05,1.02,0.02,0.46,0.18,-0.86,-0.30,0.08,-0.34,1012.60
7.855,-0.05,1.02,0.02,0.46,0.18,-0.86,-0.23,-0.11,-0.27,1012.60
7.856,-0.05,1.02,0.02,0.46,0.18,-0.86,-0.23,-0.11,-0.27,1012.60
7.856,-0.05,1.02,0.02,-0.56,0.47,0.17,-0.23,-0.11,-0.27,1012.60
7.892,-0.05,1.02,0.02,-0.56,0.47,0.17,-0.19,-0.11,-0.28,1012.60
7.896,-0.05,1.02,0.02,-0.45,0.46,0.10,-0.19,-0.11,-0.28,1012.60
7.913,-0.04,0.99,0.02,-0.45,0.46,0.10,-0.19,-0.11,-0.28,1012.60
7.917,-0.04,0.99,0.02,-0.45,0.46,0.10,-0.19,-0.11,-0.28,1012.60
7.952,-0.04,0.99,0.02,-0.45,0.46,0.10,-0.18,0.03,-0.27,1012.60
7.957,-0.04,0.99,0.02,-0.19,0.19,-0.01,-0.18,0.03,-0.27,1012.60
7.989,-0.07,0.98,0.03,-0.19,0.19,-0.01,-0.18,0.03,-0.27,1012.60
7.992,-0.07,0.98,0.03,-0.19,0.19,-0.01,-0.11,-0.03,-0.18,1012.60
7.993,-0.07,0.98,0.03,-0.19,0.19,-0.01,-0.11,-0.03,-0.18,1012.60
7.994,-0.07,0.98,0.03,-0.49,0.14,0.05,-0.11,-0.03,-0.18,1012.60
8.02,-0.07,0.98,0.03,-0.49,0.14,0.05,-0.07,-0.07,-0.04,1012.60
8.023,-0.07,0.98,0.03,-0.47,0.13,0.02,-0.07,-0.07,-0.04,1012.60
8.044,-0.09,0.99,0.03,-0.47,0.13,0.02,-0.07,-0.07,-0.04,1012.60
8.047,-0.09,0.99,0.03,-0.47,0.13,0.02,-0.07,-0.07,-0.04,1012.60
8.05,-0.09,0.99,0.03,-0.47,0.13,0.02,-0.07,-0.15,0.02,1012.60
8.052,-0.09,0.99,0.03,-0.66,0.23,0.02,-0.07,-0.15,0.02,1012.60
8.091,-0.04,1.01,0.01,-0.66,0.23,0.02,-0.07,-0.15,0.02,1012.60
8.095,-0.04,1.01,0.01,-0.66,0.23,0.02,-0.06,0.01,-0.07,1012.60
8.097,-0.04,1.01,0.01,-0.13,0.33,-0.20,-0.06,0.01,-0.07,1012.60
8.099,-0.04,1.01,0.01,-0.13,0.33,-0.20,-0.06,0.01,-0.07,1012.61
8.15,-0.04,1.01,0.01,-0.09,0.33,-0.20,-0.06,0.01,-0.07,1012.61
8.154,-0.04,1.01,0.01,-0.09,0.33,-0.20,-0.00,0.22,-0.09,1012.61
8.157,-0.08,0.99,0.05,-0.09,0.33,-0.20,-0.00,0.22,-0.09,1012.61
8.16,-0.08,0.99,0.05,-0.09,0.33,-0.20,-0.00,0.22,-0.09,1012.62
8.182,-0.08,0.99,0.05,-0.09,0.33,-0.20,0.04,0.05,-0.01,1012.62
8.185,-0.08,0.99,0.05,-0.44,0.16,0.27,0.04,0.05,-0.01,1012.62
8.225,-0.08,0.99,0.05,-0.70,0.19,0.04,0.04,0.05,-0.01,1012.62
8.23,-0.10,0.99,0.03,-0.70,0.19,0.04,0.04,0.05,-0.01,1012.62
8.232,-0.10,0.99,0.03,-0.70,0.19,0.04,0.06,-0.05,0.04,1012.62
8.234,-0.10,0.99,0.03,-0.70,0.19,0.04,0.06,-0.05,0.04,1012.61
8.263,-0.10,0.99,0.03,-0.70,0.19,0.04,0.03,0.06,0.04,1012.61
8.267,-0.10,0.99,0.03,-0.70,0.19,0.05,0.03,0.06,0.04,1012.61
8.269,-0.02,1.01,-0.02,-0.70,0.19,0.05,0.03,0.06,0.04,1012.61
8.272,-0.02,1.01,-0.02,-0.70,0.19,0.05,0.03,0.06,0.04,1012.61
8.287,-0.02,1.01,-0.02,-0.70,0.19,0.05,-0.00,0.13,0.02,1012.61
8.29,-0.02,1.01,-0.02,0.09,0.37,-0.44,-0.00,0.13,0.02,1012.61
8.35,-0.04,1.01,-0.00,0.09,0.37,-0.44,-0.00,0.13,0.02,1012.61
8.353,-0.04,1.01,-0.00,0.09,0.37,-0.44,0.00,0.12,-0.00,1012.61
8.355,-0.04,1.01,-0.00,-0.04,0.31,-0.26,0.00,0.12,-0.00,1012.61
8.355,-0.04,1.01,-0.00,-0.04,0.31,-0.26,0.00,0.12,-0.00,1012.61
8.38,-0.04,1.01,-0.00,-0.04,0.31,-0.26,0.04,0.13,0.02,1012.61
8.382,-0.04,1.01,-0.00,-0.04,0.30,-0.24,0.04,0.13,0.02,1012.61
8.387,-0.11,0.99,0.03,-0.04,0.30,-0.24,0.04,0.13,0.02,1012.61
8.393,-0.11,0.99,0.03,-0.04,0.30,-0.24,0.04,0.13,0.02,1012.62
8.405,-0.11,0.99,0.03,-0.04,0.30,-0.24,0.07,0.02,0.08,1012.62
8.406,-0.11,0.99,0.03,-0.81,0.12,0.15,0.07,0.02,0.08,1012.62
