time,gFx,gFy,gFz,ax,ay,az,wx,wy,wz,P
0.005,-0.09,1.00,0.04,0.02,-0.06,-0.05,-0.16,0.28,-0.08,1012.86
0.006,-0.09,1.00,0.04,0.02,-0.06,-0.05,-0.08,0.15,-0.05,1012.86
0.007,-0.09,1.00,0.04,0.26,0.08,0.01,-0.08,0.15,-0.05,1012.86
0.029,-0.09,1.00,0.04,0.26,0.08,0.01,-0.08,0.15,-0.05,1012.85
0.03,-0.25,0.98,0.06,0.26,0.08,0.01,-0.08,0.15,-0.05,1012.85
0.031,-0.25,0.98,0.06,0.26,0.08,0.01,-0.07,0.26,-0.12,1012.85
0.031,-0.25,0.98,0.06,-1.16,-0.09,0.20,-0.07,0.26,-0.12,1012.85
0.067,-0.29,1.00,0.08,-1.16,-0.09,0.20,-0.07,0.26,-0.12,1012.85
0.068,-0.29,1.00,0.08,-1.16,-0.09,0.20,-0.13,0.19,0.08,1012.85
0.069,-0.29,1.00,0.08,-1.56,0.03,0.30,-0.13,0.19,0.08,1012.85
0.084,-0.29,1.00,0.08,-1.56,0.03,0.30,-0.13,0.19,0.08,1012.85
0.106,-0.10,1.03,0.11,-1.56,0.03,0.30,-0.13,0.19,0.08,1012.85
0.107,-0.10,1.03,0.11,0.17,0.32,0.52,-0.13,0.19,0.08,1012.85
0.108,-0.10,1.03,0.11,0.17,0.32,0.52,-0.10,-0.04,0.23,1012.85
0.147,-0.10,1.03,0.11,0.17,0.32,0.52,-0.10,-0.04,0.23,1012.85
0.148,-0.17,0.95,0.05,0.17,0.32,0.52,-0.10,-0.04,0.23,1012.85
0.149,-0.17,0.95,0.05,0.17,0.32,0.52,-0.03,0.17,0.28,1012.85
0.149,-0.17,0.95,0.05,-0.60,-0.50,-0.07,-0.03,0.17,0.28,1012.85
0.192,-0.07,1.02,0.03,-0.60,-0.50,-0.07,-0.03,0.17,0.28,1012.85
0.193,-0.07,1.02,0.03,-0.60,-0.50,-0.07,-0.03,0.04,0.40,1012.85
0.193,-0.07,1.02,0.03,0.20,0.19,-0.22,-0.03,0.04,0.40,1012.85
0.207,-0.07,1.02,0.03,0.20,0.19,-0.22,-0.03,0.04,0.40,1012.85
0.232,-0.02,0.99,0.09,0.20,0.19,-0.22,-0.03,0.04,0.40,1012.85
0.234,-0.02,0.99,0.09,0.20,0.19,-0.22,-0.06,0.19,0.34,1012.85
0.234,-0.02,0.99,0.09,0.61,-0.07,0.37,-0.06,0.19,0.34,1012.85
0.263,-0.10,1.04,0.05,0.61,-0.07,0.37,-0.06,0.19,0.34,1012.85
0.264,-0.10,1.04,0.05,0.61,-0.07,0.37,-0.03,0.49,0.30,1012.85
0.264,-0.10,1.04,0.05,-0.34,0.35,-0.09,-0.03,0.49,0.30,1012.85
0.265,-0.10,1.04,0.05,-0.34,0.35,-0.09,-0.03,0.49,0.30,1012.86
0.32,-0.25,0.91,0.13,-0.34,0.35,-0.09,-0.03,0.49,0.30,1012.86
0.323,-0.25,0.91,0.13,-0.34,0.35,-0.09,-0.02,0.31,0.31,1012.86
0.325,-0.25,0.91,0.13,-1.84,-0.89,0.75,-0.02,0.31,0.31,1012.86
0.327,-0.25,0.91,0.13,-1.84,-0.89,0.75,-0.02,0.31,0.31,1012.86
0.353,0.06,1.06,0.18,-1.84,-0.89,0.75,-0.02,0.31,0.31,1012.86
0.355,0.06,1.06,0.18,-1.84,-0.89,0.75,0.13,-0.12,0.49,1012.86
0.356,0.06,1.06,0.18,0.97,0.56,1.20,0.13,-0.12,0.49,1012.86
0.383,-0.07,1.05,0.11,0.97,0.56,1.20,0.13,-0.12,0.49,1012.86
0.384,-0.07,1.05,0.11,-0.44,0.50,0.62,0.13,-0.12,0.49,1012.86
0.385,-0.07,1.05,0.11,-0.44,0.50,0.62,0.28,-0.19,0.42,1012.86
0.385,-0.07,1.05,0.11,-0.44,0.50,0.62,0.28,-0.19,0.42,1012.85
0.468,0.15,1.12,0.03,-0.44,0.50,0.62,0.28,-0.19,0.42,1012.85
0.469,0.15,1.12,0.03,-0.44,0.50,0.62,0.36,-0.95,0.41,1012.85
0.47,0.15,1.12,0.03,1.52,1.11,0.03,0.36,-0.95,0.41,1012.85
0.471,0.15,1.12,0.03,1.52,1.11,0.03,0.36,-0.95,0.41,1012.85
0.472,0.43,1.40,-0.07,1.52,1.11,0.03,0.36,-0.95,0.41,1012.85
0.472,0.43,1.40,-0.07,1.52,1.11,0.03,0.38,-0.98,0.17,1012.85
0.473,0.43,1.40,-0.07,4.09,3.79,-0.78,0.38,-0.98,0.17,1012.85
0.504,0.71,1.62,0.08,4.09,3.79,-0.78,0.38,-0.98,0.17,1012.85
0.506,0.71,1.62,0.08,4.09,3.79,-0.78,0.28,-0.22,-0.40,1012.85
0.508,0.71,1.62,0.08,6.91,5.80,0.71,0.28,-0.22,-0.40,1012.85
0.509,0.71,1.62,0.08,6.91,5.80,0.71,0.28,-0.22,-0.40,1012.85
0.541,0.02,1.94,-0.42,6.91,5.80,0.71,0.28,-0.22,-0.40,1012.85
0.543,0.02,1.94,-0.42,6.91,5.80,0.71,1.00,0.12,-2.16,1012.85
0.545,0.02,1.94,-0.42,0.92,8.83,-3.69,1.00,0.12,-2.16,1012.85
0.564,0.02,1.94,-0.42,0.92,8.83,-3.69,1.00,0.12,-2.16,1012.86
0.583,-0.18,1.63,-0.21,0.92,8.83,-3.69,1.00,0.12,-2.16,1012.86
0.585,-0.18,1.63,-0.21,0.92,8.83,-3.69,1.20,-0.91,-3.33,1012.86
0.586,-0.18,1.63,-0.21,0.38,5.92,-1.21,1.20,-0.91,-3.33,1012.86
0.621,0.39,1.12,0.05,0.38,5.92,-1.21,1.20,-0.91,-3.33,1012.86
0.626,0.39,1.12,0.05,0.38,5.92,-1.21,1.07,-0.91,-3.03,1012.86
0.627,0.39,1.12,0.05,0.38,5.92,-1.21,1.07,-0.91,-3.03,1012.86
0.628,0.39,1.12,0.05,7.01,1.28,1.66,1.07,-0.91,-3.03,1012.86
0.66,0.03,0.63,0.11,7.01,1.28,1.66,1.07,-0.91,-3.03,1012.86
0.663,0.03,0.63,0.11,7.01,1.28,1.66,1.00,0.39,-2.24,1012.86
0.664,0.03,0.63,0.11,4.26,-3.04,2.63,1.00,0.39,-2.24,1012.86
0.683,0.03,0.63,0.11,4.26,-3.04,2.63,1.00,0.39,-2.24,1012.87
0.717,0.09,0.58,0.03,4.26,-3.04,2.63,1.00,0.39,-2.24,1012.87
0.72,0.09,0.58,0.03,4.26,-3.04,2.63,0.87,0.30,-0.60,1012.87
0.721,0.09,0.58,0.03,4.94,-3.39,2.17,0.87,0.30,-0.60,1012.87
0.753,0.11,0.32,0.09,4.94,-3.39,2.17,0.87,0.30,-0.60,1012.87
0.755,0.11,0.32,0.09,4.94,-3.39,2.17,0.40,0.42,0.66,1012.87
0.755,0.11,0.32,0.09,4.79,-5.85,2.89,0.40,0.42,0.66,1012.87
0.756,0.11,0.32,0.09,4.79,-5.85,2.89,0.40,0.42,0.66,1012.86
0.78,-0.07,0.31,0.02,4.79,-5.85,2.89,0.40,0.42,0.66,1012.86
0.782,-0.07,0.31,0.02,4.79,-5.85,2.89,0.07,0.98,1.58,1012.86
0.783,-0.07,0.31,0.02,2.34,-6.09,2.31,0.07,0.98,1.58,1012.86
0.802,-0.07,0.31,0.02,2.34,-6.09,2.31,0.07,0.98,1.58,1012.85
0.819,-0.31,0.33,-0.15,2.34,-6.09,2.31,0.07,0.98,1.58,1012.85
0.822,-0.31,0.33,-0.15,2.34,-6.09,2.31,-0.23,1.45,2.04,1012.85
0.824,-0.31,0.33,-0.15,-0.83,-5.96,0.71,-0.23,1.45,2.04,1012.85
0.859,-0.73,0.42,-0.32,-0.83,-5.96,0.71,-0.23,1.45,2.04,1012.85
0.863,-0.73,0.42,-0.32,-0.83,-5.96,0.71,-0.39,1.37,1.79,1012.85
0.865,-0.73,0.42,-0.32,-5.63,-5.21,-0.99,-0.39,1.37,1.79,1012.85
0.867,-0.73,0.42,-0.32,-5.63,-5.21,-0.99,-0.39,1.37,1.79,1012.83
0.9,-0.93,0.40,-0.34,-5.63,-5.21,-0.99,-0.39,1.37,1.79,1012.83
0.902,-0.93,0.40,-0.34,-5.63,-5.21,-0.99,-0.30,0.56,0.89,1012.83
0.906,-0.93,0.40,-0.34,-7.93,-5.39,-1.27,-0.30,0.56,0.89,1012.83
0.925,-0.93,0.40,-0.34,-7.93,-5.39,-1.27,-0.30,0.56,0.89,1012.83
0.941,-0.81,0.50,-0.04,-7.93,-5.39,-1.27,-0.30,0.56,0.89,1012.83
0.944,-0.81,0.50,-0.04,-7.93,-5.39,-1.27,0.27,0.29,-0.14,1012.83
0.946,-0.81,0.50,-0.04,-6.59,-4.29,1.78,0.27,0.29,-0.14,1012.83
0.978,-0.81,0.50,-0.04,-2.14,18.82,-10.48,0.27,0.29,-0.14,1012.83
0.981,-0.42,2.86,-1.37,-2.14,18.82,-10.48,0.27,0.29,-0.14,1012.83
0.983,-0.42,2.86,-1.37,-2.14,18.82,-10.48,1.58,0.49,-1.70,1012.83
0.984,-0.42,2.86,-1.37,-2.14,18.82,-10.48,1.58,0.49,-1.70,1012.83
1.019,-0.42,2.86,-1.37,3.33,-8.01,1.86,1.58,0.49,-1.70,1012.83
1.023,0.12,0.11,-0.09,3.33,-8.01,1.86,1.58,0.49,-1.70,1012.83
1.025,0.12,0.11,-0.09,3.33,-8.01,1.86,-0.41,-0.00,-0.55,1012.83
1.048,0.12,0.11,-0.09,3.33,-8.01,1.86,-0.41,-0.00,-0.55,1012.83
1.059,-1.51,0.71,-0.30,3.33,-8.01,1.86,-0.41,-0.00,-0.55,1012.83
1.062,-1.51,0.71,-0.30,3.33,-8.01,1.86,0.36,1.47,-1.20,1012.83
1.064,-1.51,0.71,-0.30,-12.23,-2.00,0.07,0.36,1.47,-1.20,1012.83
1.106,-0.02,1.43,-0.58,-12.23,-2.00,0.07,0.36,1.47,-1.20,1012.83
1.111,-0.02,1.43,-0.58,-12.23,-2.00,0.07,0.24,-0.26,0.50,1012.83
1.112,-0.02,1.43,-0.58,2.18,5.01,-2.55,0.24,-0.26,0.50,1012.83
1.112,-0.02,1.43,-0.58,2.18,5.01,-2.55,0.24,-0.26,0.50,1012.83
1.14,-0.49,0.81,-0.29,2.18,5.01,-2.55,0.24,-0.26,0.50,1012.83
1.142,-0.49,0.81,-0.29,2.18,5.01,-2.55,-0.13,0.25,0.23,1012.83
1.144,-0.49,0.81,-0.29,-2.50,-1.11,0.23,-0.13,0.25,0.23,1012.83
1.162,-0.49,0.81,-0.29,-2.50,-1.11,0.23,-0.13,0.25,0.23,1012.83
1.174,-0.35,0.95,-0.41,-2.50,-1.11,0.23,-0.13,0.25,0.23,1012.83
1.175,-0.35,0.95,-0.41,-2.50,-1.11,0.23,-0.08,0.04,0.58,1012.83
1.176,-0.35,0.95,-0.41,-1.30,0.24,-0.94,-0.08,0.04,0.58,1012.83
1.224,-0.16,0.97,-0.42,-1.30,0.24,-0.94,-0.08,0.04,0.58,1012.83
1.228,-0.16,0.97,-0.42,-1.30,0.24,-0.94,-0.24,-0.00,0.69,1012.83
1.23,-0.16,0.97,-0.42,0.27,0.33,-1.11,-0.24,-0.00,0.69,1012.83
1.231,-0.16,0.97,-0.42,0.27,0.33,-1.11,-0.24,-0.00,0.69,1012.82
1.253,-0.18,0.90,-0.31,0.27,0.33,-1.11,-0.24,-0.00,0.69,1012.82
1.258,-0.18,0.90,-0.31,0.27,0.33,-1.11,-0.43,0.02,0.70,1012.82
1.26,-0.18,0.90,-0.31,-0.14,-0.45,-0.13,-0.43,0.02,0.70,1012.82
1.282,-0.18,0.90,-0.31,-0.14,-0.45,-0.13,-0.43,0.02,0.70,1012.82
1.293,-0.02,0.92,-0.20,-0.14,-0.45,-0.13,-0.43,0.02,0.70,1012.82
1.296,-0.02,0.92,-0.20,-0.14,-0.45,-0.13,-0.43,0.07,0.68,1012.82
1.298,-0.02,0.92,-0.20,1.13,-0.40,0.80,-0.43,0.07,0.68,1012.82
1.333,-0.02,0.92,-0.14,1.13,-0.40,0.80,-0.43,0.07,0.68,1012.82
1.337,-0.02,0.92,-0.14,1.13,-0.40,0.80,-0.29,0.11,0.51,1012.82
1.339,-0.02,0.92,-0.14,0.94,-0.44,1.21,-0.29,0.11,0.51,1012.82
1.364,-0.02,0.92,-0.14,0.94,-0.44,1.21,-0.29,0.11,0.51,1012.82
1.375,-0.02,0.92,-0.14,1.80,-0.38,1.32,-0.29,0.11,0.51,1012.82
1.378,0.08,0.92,-0.12,1.80,-0.38,1.32,-0.29,0.11,0.51,1012.82
1.379,0.08,0.92,-0.12,1.80,-0.38,1.32,-0.11,-0.09,0.32,1012.82
1.402,0.08,0.92,-0.12,1.80,-0.38,1.32,-0.11,-0.09,0.32,1012.83
1.414,0.23,1.09,-0.25,1.80,-0.38,1.32,-0.11,-0.09,0.32,1012.83
1.416,0.23,1.09,-0.25,1.80,-0.38,1.32,0.09,-0.06,0.08,1012.83
1.417,0.23,1.09,-0.25,3.17,1.22,0.10,0.09,-0.06,0.08,1012.83
1.45,0.01,1.14,-0.43,3.17,1.22,0.10,0.09,-0.06,0.08,1012.83
1.452,0.01,1.14,-0.43,3.17,1.22,0.10,0.05,0.09,-0.16,1012.83
1.453,0.01,1.14,-0.43,1.04,1.71,-1.58,0.05,0.09,-0.16,1012.83
1.459,0.01,1.14,-0.43,1.04,1.71,-1.58,0.05,0.09,-0.16,1012.84
1.506,-0.27,1.22,-0.46,1.04,1.71,-1.58,0.05,0.09,-0.16,1012.84
1.51,-0.27,1.22,-0.46,1.04,1.71,-1.58,-0.21,-0.34,-0.18,1012.84
1.511,-0.27,1.22,-0.46,-1.60,2.47,-1.95,-0.21,-0.34,-0.18,1012.84
1.53,-0.27,1.22,-0.46,-1.60,2.47,-1.95,-0.21,-0.34,-0.18,1012.85
1.533,-0.37,1.44,-0.25,-1.60,2.47,-1.95,-0.21,-0.34,-0.18,1012.85
1.534,-0.37,1.44,-0.25,-1.60,2.47,-1.95,-0.51,-0.70,0.13,1012.85
1.536,-0.37,1.44,-0.25,-2.45,4.42,-0.17,-0.51,-0.70,0.13,1012.85
1.569,0.35,1.63,0.07,-2.45,4.42,-0.17,-0.51,-0.70,0.13,1012.85
1.57,0.35,1.63,0.07,-2.45,4.42,-0.17,-0.68,-0.69,0.46,1012.85
1.571,0.35,1.63,0.07,4.35,6.16,2.72,-0.68,-0.69,0.46,1012.85
1.582,0.35,1.63,0.07,4.35,6.16,2.72,-0.68,-0.69,0.46,1012.84
1.623,1.38,1.48,0.22,4.35,6.16,2.72,-0.68,-0.69,0.46,1012.84
1.627,1.38,1.48,0.22,4.35,6.16,2.72,-0.33,0.30,-0.26,1012.84
1.629,1.38,1.48,0.22,14.34,4.59,3.94,-0.33,0.30,-0.26,1012.84
1.679,1.38,1.48,0.22,14.34,4.59,3.94,-0.33,0.30,-0.26,1012.84
1.681,-0.11,1.93,-0.68,14.34,4.59,3.94,-0.33,0.30,-0.26,1012.84
1.683,-0.11,1.93,-0.68,14.34,4.59,3.94,1.03,1.71,-3.79,1012.84
1.683,-0.11,1.93,-0.68,1.00,9.13,-4.30,1.03,1.71,-3.79,1012.84
1.687,-1.26,1.47,-0.65,1.00,9.13,-4.30,1.03,1.71,-3.79,1012.84
1.689,-1.26,1.47,-0.65,1.00,9.13,-4.30,1.26,0.69,-4.51,1012.84
1.693,-1.26,1.47,-0.65,-8.47,5.16,-3.34,1.26,0.69,-4.51,1012.84
1.701,-1.26,1.47,-0.65,-8.47,5.16,-3.34,1.26,0.69,-4.51,1012.84
1.729,-1.26,1.47,-0.65,2.21,4.15,-1.81,1.26,0.69,-4.51,1012.84
1.732,-0.28,1.31,-0.49,2.21,4.15,-1.81,1.26,0.69,-4.51,1012.84
1.734,-0.28,1.31,-0.49,2.21,4.15,-1.81,0.92,-2.08,-2.57,1012.84
1.761,-0.28,1.31,-0.49,2.21,4.15,-1.81,0.92,-2.08,-2.57,1012.84
1.767,-0.02,0.96,-0.08,2.21,4.15,-1.81,0.92,-2.08,-2.57,1012.84
1.768,-0.02,0.96,-0.08,2.21,4.15,-1.81,0.28,-2.44,-2.06,1012.84
1.769,-0.02,0.96,-0.08,5.63,1.14,1.73,0.28,-2.44,-2.06,1012.84
1.831,-0.07,0.55,0.00,5.63,1.14,1.73,0.28,-2.44,-2.06,1012.84
1.833,-0.07,0.55,0.00,5.63,1.14,1.73,0.21,-0.96,-1.59,1012.84
1.835,-0.07,0.55,0.00,5.71,-2.42,2.34,0.21,-0.96,-1.59,1012.84
1.836,-0.07,0.55,0.00,5.71,-2.42,2.34,0.21,-0.96,-1.59,1012.82
1.867,-0.13,0.37,-0.09,5.71,-2.42,2.34,0.21,-0.96,-1.59,1012.82
1.869,-0.13,0.37,-0.09,5.71,-2.42,2.34,0.32,0.43,-0.73,1012.82
1.871,-0.13,0.37,-0.09,5.17,-3.89,1.58,0.32,0.43,-0.73,1012.82
1.882,-0.13,0.37,-0.09,5.17,-3.89,1.58,0.32,0.43,-0.73,1012.81
1.886,-0.20,0.25,-0.15,5.17,-3.89,1.58,0.32,0.43,-0.73,1012.81
1.888,-0.20,0.25,-0.15,5.17,-3.89,1.58,0.17,0.93,0.34,1012.81
1.89,-0.20,0.25,-0.15,4.25,-5.10,1.29,0.17,0.93,0.34,1012.81
1.925,-0.29,0.00,-0.02,4.25,-5.10,1.29,0.17,0.93,0.34,1012.81
1.926,-0.29,0.00,-0.02,4.25,-5.10,1.29,-0.11,0.74,1.41,1012.81
1.927,-0.29,0.00,-0.02,2.76,-7.74,2.60,-0.11,0.74,1.41,1012.81
1.981,-0.29,0.00,-0.02,2.76,-7.74,2.60,-0.11,0.74,1.41,1012.81
1.983,-0.29,0.04,0.03,2.76,-7.74,2.60,-0.11,0.74,1.41,1012.81
1.983,-0.29,0.04,0.03,2.76,-7.74,2.60,-0.10,0.21,2.46,1012.81
1.984,-0.29,0.04,0.03,1.97,-7.76,3.10,-0.10,0.21,2.46,1012.81
2.001,-0.29,0.04,0.03,1.97,-7.76,3.10,-0.10,0.21,2.46,1012.81
2.003,-0.35,0.28,-0.09,1.97,-7.76,3.10,-0.10,0.21,2.46,1012.81
2.004,-0.35,0.28,-0.09,1.97,-7.76,3.10,-0.06,0.11,2.99,1012.81
2.004,-0.35,0.28,-0.09,0.32,-5.75,1.92,-0.06,0.11,2.99,1012.81
2.043,-0.74,0.46,-0.27,0.32,-5.75,1.92,-0.06,0.11,2.99,1012.81
2.046,-0.74,0.46,-0.27,0.32,-5.75,1.92,-0.16,0.30,2.69,1012.81
2.048,-0.74,0.46,-0.27,-4.37,-4.29,0.12,-0.16,0.30,2.69,1012.81
2.078,-0.74,0.46,-0.27,-4.37,-4.29,0.12,-0.16,0.30,2.69,1012.81
2.082,-0.90,0.63,-0.38,-4.37,-4.29,0.12,-0.16,0.30,2.69,1012.81
2.083,-0.90,0.63,-0.38,-4.37,-4.29,0.12,-0.13,0.33,1.72,1012.81
2.084,-0.90,0.63,-0.38,-6.51,-2.80,-0.99,-0.13,0.33,1.72,1012.81
2.121,-0.90,0.63,-0.38,-6.51,-2.80,-0.99,-0.13,0.33,1.72,1012.81
2.125,-1.22,0.75,-0.81,-6.51,-2.80,-0.99,-0.13,0.33,1.72,1012.81
2.125,-1.22,0.75,-0.81,-6.51,-2.80,-0.99,0.52,0.78,0.14,1012.81
2.126,-1.22,0.75,-0.81,-9.54,-1.53,-4.85,0.52,0.78,0.14,1012.81
2.173,-1.30,1.20,-0.28,-9.54,-1.53,-4.85,0.52,0.78,0.14,1012.81
2.174,-1.30,1.20,-0.28,-9.54,-1.53,-4.85,0.36,-0.43,-1.44,1012.81
2.175,-1.30,1.20,-0.28,-9.61,3.02,0.36,0.36,-0.43,-1.44,1012.81
2.181,-1.30,1.20,-0.28,-9.61,3.02,0.36,0.36,-0.43,-1.44,1012.81
2.202,1.00,1.01,-0.47,-9.61,3.02,0.36,0.36,-0.43,-1.44,1012.81
2.203,1.00,1.01,-0.47,-9.61,3.02,0.36,0.31,-0.94,0.98,1012.81
2.204,1.00,1.01,-0.47,12.45,1.08,-1.43,0.31,-0.94,0.98,1012.81
2.264,-1.27,0.75,-0.43,12.45,1.08,-1.43,0.31,-0.94,0.98,1012.81
2.267,-1.27,0.75,-0.43,12.45,1.08,-1.43,0.04,2.03,-1.21,1012.81
2.268,-1.27,0.75,-0.43,-9.47,-1.34,-0.85,0.04,2.03,-1.21,1012.81
2.27,-1.27,0.75,-0.43,-9.47,-1.34,-0.85,0.04,2.03,-1.21,1012.81
2.281,-0.60,1.02,-0.56,-9.47,-1.34,-0.85,0.04,2.03,-1.21,1012.81
2.282,-0.60,1.02,-0.56,-9.47,-1.34,-0.85,-0.00,0.32,0.24,1012.81
2.283,-0.60,1.02,-0.56,-2.93,1.25,-2.00,-0.00,0.32,0.24,1012.81
2.301,-0.60,1.02,-0.56,-2.93,1.25,-2.00,-0.00,0.32,0.24,1012.80
2.324,-0.07,1.05,-0.36,-2.93,1.25,-2.00,-0.00,0.32,0.24,1012.80
2.326,-0.07,1.05,-0.36,-2.93,1.25,-2.00,-0.21,-0.23,0.66,1012.80
2.328,-0.07,1.05,-0.36,1.97,1.45,-0.14,-0.21,-0.23,0.66,1012.80
2.362,-0.59,0.90,-0.33,1.97,1.45,-0.14,-0.21,-0.23,0.66,1012.80
2.365,-0.59,0.90,-0.33,1.97,1.45,-0.14,-0.22,0.43,0.49,1012.80
2.366,-0.59,0.90,-0.33,1.97,1.45,-0.14,-0.22,0.43,0.49,1012.81
2.368,-0.59,0.90,-0.33,-3.30,-0.14,0.15,-0.22,0.43,0.49,1012.81
2.4,-0.20,0.95,-0.43,-3.30,-0.14,0.15,-0.22,0.43,0.49,1012.81
2.403,-0.20,0.95,-0.43,-3.30,-0.14,0.15,-0.21,-0.11,0.91,1012.81
2.406,-0.20,0.95,-0.43,0.23,0.25,-0.92,-0.21,-0.11,0.91,1012.81
2.432,-0.20,0.95,-0.43,0.23,0.25,-0.92,-0.21,-0.11,0.91,1012.81
2.438,-0.14,0.89,-0.38,0.23,0.25,-0.92,-0.21,-0.11,0.91,1012.81
2.44,-0.14,0.89,-0.38,0.23,0.25,-0.92,-0.35,-0.21,0.87,1012.81
2.442,-0.14,0.89,-0.38,0.54,-0.43,-0.59,-0.35,-0.21,0.87,1012.81
2.478,-0.03,0.88,-0.31,0.54,-0.43,-0.59,-0.35,-0.21,0.87,1012.81
2.481,-0.03,0.88,-0.31,0.54,-0.43,-0.59,-0.44,0.03,0.79,1012.81
2.483,-0.03,0.88,-0.31,1.32,-0.63,-0.04,-0.44,0.03,0.79,1012.81
2.485,-0.03,0.88,-0.31,1.32,-0.63,-0.04,-0.44,0.03,0.79,1012.81
2.525,0.03,0.87,-0.12,1.32,-0.63,-0.04,-0.44,0.03,0.79,1012.81
2.528,0.03,0.87,-0.12,1.32,-0.63,-0.04,-0.39,0.12,0.59,1012.81
2.53,0.03,0.87,-0.12,1.61,-0.85,1.62,-0.39,0.12,0.59,1012.81
2.565,0.03,0.87,-0.12,1.61,-0.85,1.62,-0.39,0.12,0.59,1012.80
2.568,0.03,0.87,-0.12,2.56,-0.13,1.28,-0.39,0.12,0.59,1012.80
2.568,0.14,0.94,-0.15,2.56,-0.13,1.28,-0.39,0.12,0.59,1012.80
2.569,0.14,0.94,-0.15,2.56,-0.13,1.28,-0.14,0.12,0.27,1012.80
2.598,0.02,0.93,-0.29,2.56,-0.13,1.28,-0.14,0.12,0.27,1012.80
2.6,0.02,0.93,-0.29,2.56,-0.13,1.28,0.01,0.35,-0.13,1012.80
2.602,0.02,0.93,-0.29,1.34,-0.29,-0.03,0.01,0.35,-0.13,1012.80
2.603,0.02,0.93,-0.29,1.34,-0.29,-0.03,0.01,0.35,-0.13,1012.81
2.636,0.06,1.11,-0.39,1.34,-0.29,-0.03,0.01,0.35,-0.13,1012.81
2.637,0.06,1.11,-0.39,1.34,-0.29,-0.03,0.06,0.11,-0.24,1012.81
2.638,0.06,1.11,-0.39,1.75,1.54,-0.97,0.06,0.11,-0.24,1012.81
2.66,0.06,1.11,-0.39,1.75,1.54,-0.97,0.06,0.11,-0.24,1012.79
2.678,-0.16,1.26,-0.50,1.75,1.54,-0.97,0.06,0.11,-0.24,1012.79
2.682,-0.16,1.26,-0.50,1.75,1.54,-0.97,-0.11,-0.06,-0.33,1012.79
2.683,-0.16,1.26,-0.50,-0.28,2.96,-2.12,-0.11,-0.06,-0.33,1012.79
2.727,-0.44,1.21,-0.34,-0.28,2.96,-2.12,-0.11,-0.06,-0.33,1012.79
2.73,-0.44,1.21,-0.34,-0.28,2.96,-2.12,-0.48,-0.53,-0.16,1012.79
2.732,-0.44,1.21,-0.34,-2.81,2.39,-0.72,-0.48,-0.53,-0.16,1012.79
2.734,-0.44,1.21,-0.34,-2.81,2.39,-0.72,-0.48,-0.53,-0.16,1012.77
2.766,0.02,1.61,-0.15,-2.81,2.39,-0.72,-0.48,-0.53,-0.16,1012.77
2.771,0.02,1.61,-0.15,-2.81,2.39,-0.72,-0.48,-1.07,0.33,1012.77
2.772,0.02,1.61,-0.15,1.67,6.08,0.88,-0.48,-1.07,0.33,1012.77
2.779,0.02,1.61,-0.15,1.67,6.08,0.88,-0.48,-1.07,0.33,1012.79
2.795,1.09,1.65,0.18,1.67,6.08,0.88,-0.48,-1.07,0.33,1012.79
2.799,1.09,1.65,0.18,1.67,6.08,0.88,-0.34,-0.60,0.03,1012.79
2.801,1.09,1.65,0.18,12.00,6.40,3.87,-0.34,-0.60,0.03,1012.79
2.841,0.56,1.92,-0.46,12.00,6.40,3.87,-0.34,-0.60,0.03,1012.79
2.845,0.56,1.92,-0.46,12.00,6.40,3.87,0.68,0.35,-2.74,1012.79
2.847,0.56,1.92,-0.46,7.65,9.09,-2.05,0.68,0.35,-2.74,1012.79
2.849,0.56,1.92,-0.46,7.65,9.09,-2.05,0.68,0.35,-2.74,1012.80
2.886,-1.10,1.93,-0.75,7.65,9.09,-2.05,0.68,0.35,-2.74,1012.80
2.888,-1.10,1.93,-0.75,7.65,9.09,-2.05,1.30,-0.00,-4.83,1012.80
2.89,-1.10,1.93,-0.75,-6.70,9.74,-4.38,1.30,-0.00,-4.83,1012.80
2.9,-1.10,1.93,-0.75,-6.70,9.74,-4.38,1.30,-0.00,-4.83,1012.79
2.92,-0.50,1.58,-0.61,-6.70,9.74,-4.38,1.30,-0.00,-4.83,1012.79
2.922,-0.50,1.58,-0.61,-6.70,9.74,-4.38,1.03,-2.49,-3.23,1012.79
2.924,-0.50,1.58,-0.61,0.55,6.94,-3.05,1.03,-2.49,-3.23,1012.79
2.951,-0.13,1.07,-0.07,0.55,6.94,-3.05,1.03,-2.49,-3.23,1012.79
2.952,-0.13,1.07,-0.07,0.55,6.94,-3.05,0.36,-2.75,-2.46,1012.79
2.953,-0.13,1.07,-0.07,5.20,2.56,1.67,0.36,-2.75,-2.46,1012.79
2.96,-0.13,1.07,-0.07,5.20,2.56,1.67,0.36,-2.75,-2.46,1012.78
2.994,-0.15,0.53,0.12,5.20,2.56,1.67,0.36,-2.75,-2.46,1012.78
2.997,-0.15,0.53,0.12,5.20,2.56,1.67,0.24,-0.58,-2.03,1012.78
2.999,-0.15,0.53,0.12,5.54,-2.16,3.36,0.24,-0.58,-2.03,1012.78
3.02,-0.15,0.53,0.12,5.54,-2.16,3.36,0.24,-0.58,-2.03,1012.78
3.047,-0.15,0.26,-0.11,5.54,-2.16,3.36,0.24,-0.58,-2.03,1012.78
3.051,-0.15,0.26,-0.11,5.54,-2.16,3.36,0.39,1.46,-1.18,1012.78
3.052,-0.15,0.26,-0.11,5.71,-4.30,1.61,0.39,1.46,-1.18,1012.78
3.079,-0.31,0.14,-0.22,5.71,-4.30,1.61,0.39,1.46,-1.18,1012.78
3.08,-0.31,0.14,-0.22,5.71,-4.30,1.61,0.02,1.81,0.04,1012.78
3.081,-0.31,0.14,-0.22,3.85,-5.44,1.06,0.02,1.81,0.04,1012.78
3.082,-0.31,0.14,-0.22,3.85,-5.44,1.06,0.02,1.81,0.04,1012.78
3.116,-0.31,-0.21,0.03,3.85,-5.44,1.06,0.02,1.81,0.04,1012.78
3.118,-0.31,-0.21,0.03,3.85,-5.44,1.06,-0.57,0.86,1.49,1012.78
3.118,-0.31,-0.21,0.03,3.21,-9.17,3.53,-0.57,0.86,1.49,1012.78
3.145,-0.31,-0.21,0.03,3.21,-9.17,3.53,-0.57,0.86,1.49,1012.77
3.149,-0.23,-0.18,0.02,3.21,-9.17,3.53,-0.57,0.86,1.49,1012.77
3.149,-0.23,-0.18,0.02,3.21,-9.17,3.53,-0.60,0.24,2.79,1012.77
3.15,-0.23,-0.18,0.02,3.11,-9.46,3.25,-0.60,0.24,2.79,1012.77
3.19,-0.35,-0.15,0.11,3.11,-9.46,3.25,-0.60,0.24,2.79,1012.77
3.193,-0.35,-0.15,0.11,3.11,-9.46,3.25,-0.59,0.24,3.56,1012.77
3.195,-0.35,-0.15,0.11,0.75,-9.70,3.91,-0.59,0.24,3.56,1012.77
3.199,-0.35,-0.15,0.11,0.75,-9.70,3.91,-0.59,0.24,3.56,1012.76
3.25,-0.63,0.14,-0.28,0.75,-9.70,3.91,-0.59,0.24,3.56,1012.76
3.252,-0.63,0.14,-0.28,0.75,-9.70,3.91,-0.35,0.98,3.30,1012.76
3.254,-0.63,0.14,-0.28,-3.14,-7.26,0.13,-0.35,0.98,3.30,1012.76
3.283,-0.63,0.14,-0.28,-3.14,-7.26,0.13,-0.35,0.98,3.30,1012.74
3.284,-1.18,0.25,-0.49,-3.14,-7.26,0.13,-0.35,0.98,3.30,1012.74
3.285,-1.18,0.25,-0.49,-3.14,-7.26,0.13,-0.41,1.73,1.72,1012.74
3.286,-1.18,0.25,-0.49,-9.21,-6.35,-1.90,-0.41,1.73,1.72,1012.74
3.311,-1.11,1.37,-1.73,-9.21,-6.35,-1.90,-0.41,1.73,1.72,1012.74
3.312,-1.11,1.37,-1.73,-8.29,4.77,-13.26,-0.41,1.73,1.72,1012.74
3.313,-1.11,1.37,-1.73,-8.29,4.77,-13.26,1.07,1.71,-0.66,1012.74
3.319,-1.11,1.37,-1.73,-8.29,4.77,-13.26,1.07,1.71,-0.66,1012.74
3.353,-0.32,2.09,-0.12,-8.29,4.77,-13.26,1.07,1.71,-0.66,1012.74
3.355,-0.32,2.09,-0.12,-8.29,4.77,-13.26,-0.09,-1.83,-3.18,1012.74
3.356,-0.32,2.09,-0.12,0.69,12.06,2.22,-0.09,-1.83,-3.18,1012.74
3.378,-0.32,2.09,-0.12,0.69,12.06,2.22,-0.09,-1.83,-3.18,1012.75
3.386,-0.66,-0.47,0.03,0.69,12.06,2.22,-0.09,-1.83,-3.18,1012.75
3.387,-0.66,-0.47,0.03,0.69,12.06,2.22,-0.87,2.09,-0.51,1012.75
3.388,-0.66,-0.47,0.03,-2.71,-12.84,3.61,-0.87,2.09,-0.51,1012.75
3.428,-1.57,1.55,-0.73,-2.71,-12.84,3.61,-0.87,2.09,-0.51,1012.75
3.432,-1.57,1.55,-0.73,-2.71,-12.84,3.61,0.31,0.70,-0.48,1012.75
3.432,-1.57,1.55,-0.73,-11.34,6.89,-3.57,0.31,0.70,-0.48,1012.75
3.439,-1.57,1.55,-0.73,-11.34,6.89,-3.57,0.31,0.70,-0.48,1012.76
3.467,-0.16,0.80,-0.27,-11.34,6.89,-3.57,0.31,0.70,-0.48,1012.76
3.47,-0.16,0.80,-0.27,-11.34,6.89,-3.57,-0.33,-0.46,1.12,1012.76
3.471,-0.16,0.80,-0.27,2.11,-0.65,0.75,-0.33,-0.46,1.12,1012.76
3.499,-0.16,0.80,-0.27,2.11,-0.65,0.75,-0.33,-0.46,1.12,1012.75
3.506,-0.57,0.90,-0.34,2.11,-0.65,0.75,-0.33,-0.46,1.12,1012.75
3.509,-0.57,0.90,-0.34,2.11,-0.65,0.75,-0.19,0.04,0.69,1012.75
3.515,-0.57,0.90,-0.34,-2.11,0.19,0.04,-0.19,0.04,0.69,1012.75
3.556,-0.30,0.92,-0.43,-2.11,0.19,0.04,-0.19,0.04,0.69,1012.75
3.56,-0.30,0.92,-0.43,-2.11,0.19,0.04,-0.19,-0.31,1.06,1012.75
3.562,-0.30,0.92,-0.43,0.23,0.23,-0.97,-0.19,-0.31,1.06,1012.75
3.564,-0.30,0.92,-0.43,0.23,0.23,-0.97,-0.19,-0.31,1.06,1012.75
3.615,-0.11,0.85,-0.35,0.23,0.23,-0.97,-0.19,-0.31,1.06,1012.75
3.616,-0.11,0.85,-0.35,0.23,0.23,-0.97,-0.31,-0.42,1.03,1012.75
3.617,-0.11,0.85,-0.35,1.72,-0.58,-0.33,-0.31,-0.42,1.03,1012.75
3.617,-0.11,0.85,-0.35,1.72,-0.58,-0.33,-0.31,-0.42,1.03,1012.74
3.623,-0.15,0.92,-0.27,1.72,-0.58,-0.33,-0.31,-0.42,1.03,1012.74
3.623,-0.15,0.92,-0.27,1.72,-0.58,-0.33,-0.33,-0.30,0.78,1012.74
3.626,-0.15,0.92,-0.27,1.15,-0.01,0.33,-0.33,-0.30,0.78,1012.74
3.663,0.07,0.88,-0.16,1.15,-0.01,0.33,-0.33,-0.30,0.78,1012.74
3.665,0.07,0.88,-0.16,1.15,-0.01,0.33,-0.30,-0.11,0.61,1012.74
3.667,0.07,0.88,-0.16,3.03,-0.54,1.30,-0.30,-0.11,0.61,1012.74
3.69,0.07,0.88,-0.16,3.03,-0.54,1.30,-0.30,-0.11,0.61,1012.74
3.703,0.09,0.96,-0.12,3.03,-0.54,1.30,-0.30,-0.11,0.61,1012.74
3.705,0.09,0.96,-0.12,3.03,-0.54,1.30,-0.06,0.01,0.11,1012.74
3.707,0.09,0.96,-0.12,3.07,0.28,1.59,-0.06,0.01,0.11,1012.74
3.741,0.09,0.96,-0.12,3.07,0.28,1.59,-0.06,0.01,0.11,1012.74
3.745,0.09,0.96,-0.12,2.12,0.98,0.68,-0.06,0.01,0.11,1012.74
3.751,-0.02,1.03,-0.22,2.12,0.98,0.68,-0.06,0.01,0.11,1012.74
3.753,-0.02,1.03,-0.22,2.12,0.98,0.68,0.11,0.26,-0.37,1012.74
3.782,-0.43,1.02,-0.45,2.12,0.98,0.68,0.11,0.26,-0.37,1012.74
3.784,-0.43,1.02,-0.45,2.12,0.98,0.68,0.14,0.14,-0.67,1012.74
3.786,-0.43,1.02,-0.45,-1.67,0.96,-1.50,0.14,0.14,-0.67,1012.74
3.797,-0.43,1.02,-0.45,-1.67,0.96,-1.50,0.14,0.14,-0.67,1012.74
3.821,-0.76,1.11,-0.49,-1.67,0.96,-1.50,0.14,0.14,-0.67,1012.74
3.824,-0.76,1.11,-0.49,-1.67,0.96,-1.50,-0.10,-0.29,-0.36,1012.74
3.825,-0.76,1.11,-0.49,-4.63,1.85,-1.91,-0.10,-0.29,-0.36,1012.74
3.858,-0.76,1.11,-0.49,-4.63,1.85,-1.91,-0.10,-0.29,-0.36,1012.73
3.864,-0.62,1.47,-0.32,-4.63,1.85,-1.91,-0.10,-0.29,-0.36,1012.73
3.866,-0.62,1.47,-0.32,-4.63,1.85,-1.91,-0.35,-0.91,0.40,1012.73
3.867,-0.62,1.47,-0.32,-3.31,5.20,-0.44,-0.35,-0.91,0.40,1012.73
3.9,0.21,1.65,0.04,-3.31,5.20,-0.44,-0.35,-0.91,0.40,1012.73
3.904,0.21,1.65,0.04,-3.31,5.20,-0.44,-0.66,-0.67,1.00,1012.73
3.905,0.21,1.65,0.04,4.45,6.67,2.73,-0.66,-0.67,1.00,1012.73
3.917,0.21,1.65,0.04,4.45,6.67,2.73,-0.66,-0.67,1.00,1012.73
3.944,1.02,1.52,0.01,4.45,6.67,2.73,-0.66,-0.67,1.00,1012.73
3.947,1.02,1.52,0.01,4.45,6.67,2.73,-0.23,0.15,-0.16,1012.73
3.948,1.02,1.52,0.01,12.22,5.28,2.32,-0.23,0.15,-0.16,1012.73
3.984,1.02,1.52,0.01,12.22,5.28,2.32,-0.23,0.15,-0.16,1012.75
3.986,-0.43,1.87,-0.78,12.22,5.28,2.32,-0.23,0.15,-0.16,1012.75
3.987,-0.43,1.87,-0.78,12.22,5.28,2.32,0.90,1.22,-3.95,1012.75
3.988,-0.43,1.87,-0.78,-0.56,9.11,-4.85,0.90,1.22,-3.95,1012.75
4.019,-1.39,1.53,-0.59,-0.56,9.11,-4.85,0.90,1.22,-3.95,1012.75
4.021,-1.39,1.53,-0.59,-0.56,9.11,-4.85,1.23,-0.03,-4.52,1012.75
4.022,-1.39,1.53,-0.59,-8.34,6.59,-2.59,1.23,-0.03,-4.52,1012.75
4.04,-1.39,1.53,-0.59,-8.34,6.59,-2.59,1.23,-0.03,-4.52,1012.76
4.062,-0.44,1.47,-0.45,-8.34,6.59,-2.59,1.23,-0.03,-4.52,1012.76
4.066,-0.44,1.47,-0.45,-8.34,6.59,-2.59,1.29,-2.89,-2.83,1012.76
4.068,-0.44,1.47,-0.45,2.26,6.74,-1.45,1.29,-2.89,-2.83,1012.76
4.098,0.06,1.10,-0.11,2.26,6.74,-1.45,1.29,-2.89,-2.83,1012.76
4.101,0.06,1.10,-0.11,2.26,6.74,-1.45,0.65,-2.37,-2.38,1012.76
4.103,0.06,1.10,-0.11,7.90,3.72,1.42,0.65,-2.37,-2.38,1012.76
4.105,0.06,1.10,-0.11,7.90,3.72,1.42,0.65,-2.37,-2.38,1012.75
4.15,-0.15,0.60,-0.09,7.90,3.72,1.42,0.65,-2.37,-2.38,1012.75
4.153,-0.15,0.60,-0.09,7.90,3.72,1.42,0.39,-0.18,-2.02,1012.75
4.154,-0.15,0.60,-0.09,6.31,-0.50,1.57,0.39,-0.18,-2.02,1012.75
4.156,-0.15,0.60,-0.09,6.31,-0.50,1.57,0.39,-0.18,-2.02,1012.73
4.182,-0.13,0.40,-0.17,6.31,-0.50,1.57,0.39,-0.18,-2.02,1012.73
4.185,-0.13,0.40,-0.17,6.31,-0.50,1.57,0.14,1.05,-0.90,1012.73
4.186,-0.13,0.40,-0.17,6.52,-2.18,1.13,0.14,1.05,-0.90,1012.73
4.218,-0.21,0.08,-0.08,6.52,-2.18,1.13,0.14,1.05,-0.90,1012.73
4.22,-0.21,0.08,-0.08,6.52,-2.18,1.13,-0.26,1.18,0.41,1012.73
4.221,-0.21,0.08,-0.08,6.52,-2.18,1.13,-0.26,1.18,0.41,1012.73
4.222,-0.21,0.08,-0.08,5.41,-5.29,2.26,-0.26,1.18,0.41,1012.73
4.256,-0.28,-0.14,0.05,5.41,-5.29,2.26,-0.26,1.18,0.41,1012.73
4.257,-0.28,-0.14,0.05,5.41,-5.29,2.26,-0.44,0.60,1.83,1012.73
4.257,-0.28,-0.14,0.05,4.10,-7.89,3.53,-0.44,0.60,1.83,1012.73
4.276,-0.28,-0.14,0.05,4.10,-7.89,3.53,-0.44,0.60,1.83,1012.71
4.296,-0.28,-0.14,0.05,3.72,-8.69,3.72,-0.44,0.60,1.83,1012.71
4.301,-0.23,-0.15,0.08,3.72,-8.69,3.72,-0.44,0.60,1.83,1012.71
4.304,-0.23,-0.15,0.08,3.72,-8.69,3.72,-0.35,0.07,3.05,1012.71
4.349,-0.41,-0.03,-0.08,3.72,-8.69,3.72,-0.35,0.07,3.05,1012.71
4.352,-0.41,-0.03,-0.08,3.72,-8.69,3.72,-0.34,0.31,3.52,1012.71
4.353,-0.41,-0.03,-0.08,0.87,-8.17,2.07,-0.34,0.31,3.52,1012.71
4.355,-0.41,-0.03,-0.08,0.87,-8.17,2.07,-0.34,0.31,3.52,1012.69
4.385,-0.82,0.24,-0.37,0.87,-8.17,2.07,-0.34,0.31,3.52,1012.69
4.388,-0.82,0.24,-0.37,0.87,-8.17,2.07,-0.45,0.59,2.95,1012.69
4.39,-0.82,0.24,-0.37,-4.15,-6.02,-0.80,-0.45,0.59,2.95,1012.69
4.396,-0.82,0.24,-0.37,-4.15,-6.02,-0.80,-0.45,0.59,2.95,1012.69
4.414,-1.32,0.29,-0.41,-4.15,-6.02,-0.80,-0.45,0.59,2.95,1012.69
4.417,-1.32,0.29,-0.41,-4.15,-6.02,-0.80,-0.49,0.87,1.46,1012.69
4.418,-1.32,0.29,-0.41,-9.43,-5.64,-1.24,-0.49,0.87,1.46,1012.69
4.455,-1.50,1.11,-1.45,-9.43,-5.64,-1.24,-0.49,0.87,1.46,1012.69
4.457,-1.50,1.11,-1.45,-9.43,-5.64,-1.24,0.90,0.94,-0.41,1012.69
4.458,-1.50,1.11,-1.45,-9.43,-5.64,-1.24,0.90,0.94,-0.41,1012.69
4.458,-1.50,1.11,-1.45,-11.02,2.46,-10.83,0.90,0.94,-0.41,1012.69
4.499,-0.50,1.84,0.35,-11.02,2.46,-10.83,0.90,0.94,-0.41,1012.69
4.501,-0.50,1.84,0.35,-11.02,2.46,-10.83,-0.06,-0.84,-1.67,1012.69
4.503,-0.50,1.84,0.35,-0.55,9.73,6.58,-0.06,-0.84,-1.67,1012.69
4.519,-0.50,1.84,0.35,-0.55,9.73,6.58,-0.06,-0.84,-1.67,1012.70
4.55,0.32,-0.10,-0.90,-0.55,9.73,6.58,-0.06,-0.84,-1.67,1012.70
4.553,0.32,-0.10,-0.90,-0.55,9.73,6.58,0.13,0.86,0.70,1012.70
4.554,0.32,-0.10,-0.90,7.06,-9.22,-5.36,0.13,0.86,0.70,1012.70
4.586,-1.81,1.12,-0.19,7.06,-9.22,-5.36,0.13,0.86,0.70,1012.70
4.587,-1.81,1.12,-0.19,7.06,-9.22,-5.36,-0.37,1.62,-1.33,1012.70
4.588,-1.81,1.12,-0.19,-13.44,2.86,1.64,-0.37,1.62,-1.33,1012.70
4.589,-1.81,1.12,-0.19,-13.44,2.86,1.64,-0.37,1.62,-1.33,1012.70
4.613,-0.30,1.14,-0.59,-13.44,2.86,1.64,-0.37,1.62,-1.33,1012.70
4.617,-0.30,1.14,-0.59,-13.44,2.86,1.64,0.08,-0.46,0.90,1012.70
4.619,-0.30,1.14,-0.59,1.15,2.85,-2.20,0.08,-0.46,0.90,1012.70
4.637,-0.30,1.14,-0.59,1.15,2.85,-2.20,0.08,-0.46,0.90,1012.70
4.665,-0.40,0.73,-0.32,1.15,2.85,-2.20,0.08,-0.46,0.90,1012.70
4.668,-0.40,0.73,-0.32,1.15,2.85,-2.20,-0.41,0.38,0.66,1012.70
4.67,-0.40,0.73,-0.32,-0.10,-1.34,0.31,-0.41,0.38,0.66,1012.70
4.704,-0.69,0.95,-0.34,-0.10,-1.34,0.31,-0.41,0.38,0.66,1012.70
4.711,-0.69,0.95,-0.34,-0.10,-1.34,0.31,-0.32,0.22,0.62,1012.70
4.713,-0.69,0.95,-0.34,-3.17,0.75,-0.00,-0.32,0.22,0.62,1012.70
4.714,-0.69,0.95,-0.34,-3.17,0.75,-0.00,-0.32,0.22,0.62,1012.69
4.736,-0.13,0.86,-0.40,-3.17,0.75,-0.00,-0.32,0.22,0.62,1012.69
4.737,-0.13,0.86,-0.40,-3.17,0.75,-0.00,-0.36,-0.16,1.08,1012.69
4.738,-0.13,0.86,-0.40,1.91,-0.38,-0.69,-0.36,-0.16,1.08,1012.69
4.76,-0.13,0.86,-0.40,1.91,-0.38,-0.69,-0.36,-0.16,1.08,1012.69
4.769,-0.19,0.88,-0.28,1.91,-0.38,-0.69,-0.36,-0.16,1.08,1012.69
4.77,-0.19,0.88,-0.28,1.91,-0.38,-0.69,-0.46,-0.12,0.81,1012.69
4.771,-0.19,0.88,-0.28,1.04,-0.31,0.27,-0.46,-0.12,0.81,1012.69
4.817,-0.19,0.88,-0.28,2.68,-0.34,0.68,-0.46,-0.12,0.81,1012.69
4.821,0.00,0.89,-0.23,2.68,-0.34,0.68,-0.46,-0.12,0.81,1012.69
4.823,0.00,0.89,-0.23,2.68,-0.34,0.68,-0.39,0.06,0.71,1012.69
4.825,0.00,0.89,-0.23,2.68,-0.34,0.68,-0.39,0.06,0.71,1012.69
4.863,-0.11,0.91,-0.13,2.68,-0.34,0.68,-0.39,0.06,0.71,1012.69
4.864,-0.11,0.91,-0.13,2.68,-0.34,0.68,-0.24,0.15,0.31,1012.69
4.865,-0.11,0.91,-0.13,1.39,-0.20,1.53,-0.24,0.15,0.31,1012.69
4.876,-0.11,0.91,-0.13,1.39,-0.20,1.53,-0.24,0.15,0.31,1012.69
4.887,-0.03,0.96,-0.18,1.39,-0.20,1.53,-0.24,0.15,0.31,1012.69
4.888,-0.03,0.96,-0.18,1.39,-0.20,1.53,0.02,-0.08,0.00,1012.69
4.888,-0.03,0.96,-0.18,2.13,0.28,1.09,0.02,-0.08,0.00,1012.69
4.945,0.01,1.08,-0.26,2.13,0.28,1.09,0.02,-0.08,0.00,1012.69
4.948,0.01,1.08,-0.26,2.13,0.28,1.09,0.21,-0.21,-0.33,1012.69
4.951,0.01,1.08,-0.26,2.66,1.48,0.30,0.21,-0.21,-0.33,1012.69
4.952,0.01,1.08,-0.26,2.66,1.48,0.30,0.21,-0.21,-0.33,1012.69
4.972,-0.20,1.16,-0.40,2.66,1.48,0.30,0.21,-0.21,-0.33,1012.69
4.977,-0.20,1.16,-0.40,2.66,1.48,0.30,0.17,-0.12,-0.54,1012.69
4.98,-0.20,1.16,-0.40,0.79,2.34,-1.04,0.17,-0.12,-0.54,1012.69
4.997,-0.20,1.16,-0.40,0.79,2.34,-1.04,0.17,-0.12,-0.54,1012.69
5.006,-0.39,1.18,-0.56,0.79,2.34,-1.04,0.17,-0.12,-0.54,1012.69
5.007,-0.39,1.18,-0.56,0.79,2.34,-1.04,-0.08,-0.36,-0.52,1012.69
5.008,-0.39,1.18,-0.56,-0.80,2.56,-2.62,-0.08,-0.36,-0.52,1012.69
5.051,-0.80,1.36,-0.27,-0.80,2.56,-2.62,-0.08,-0.36,-0.52,1012.69
5.053,-0.80,1.36,-0.27,-0.80,2.56,-2.62,-0.56,-0.41,-0.28,1012.69
5.054,-0.80,1.36,-0.27,-4.62,4.24,0.01,-0.56,-0.41,-0.28,1012.69
5.06,-0.80,1.36,-0.27,-4.62,4.24,0.01,-0.56,-0.41,-0.28,1012.69
5.11,-0.43,1.69,0.21,-4.62,4.24,0.01,-0.56,-0.41,-0.28,1012.69
5.111,-0.43,1.69,0.21,-4.62,4.24,0.01,-0.60,-0.96,0.31,1012.69
5.111,-0.43,1.69,0.21,-0.98,7.24,4.28,-0.60,-0.96,0.31,1012.69
5.115,-0.43,1.69,0.21,-0.98,7.24,4.28,-0.60,-0.96,0.31,1012.69
5.125,1.12,1.46,0.01,-0.98,7.24,4.28,-0.60,-0.96,0.31,1012.69
5.125,1.12,1.46,0.01,-0.98,7.24,4.28,-0.29,-0.61,0.49,1012.69
5.128,1.12,1.46,0.01,13.82,4.80,2.10,-0.29,-0.61,0.49,1012.69
5.165,0.91,1.60,-0.66,13.82,4.80,2.10,-0.29,-0.61,0.49,1012.69
5.168,0.91,1.60,-0.66,13.82,4.80,2.10,0.14,1.82,-2.35,1012.69
5.169,0.91,1.60,-0.66,12.29,6.37,-4.14,0.14,1.82,-2.35,1012.69
5.175,0.91,1.60,-0.66,12.29,6.37,-4.14,0.14,1.82,-2.35,1012.69
5.205,-1.86,1.58,-0.79,12.29,6.37,-4.14,0.14,1.82,-2.35,1012.69
5.207,-1.86,1.58,-0.79,12.29,6.37,-4.14,0.60,2.63,-6.12,1012.69
5.209,-1.86,1.58,-0.79,-12.82,7.13,-4.66,0.60,2.63,-6.12,1012.69
5.247,-1.86,1.58,-0.79,-12.82,7.13,-4.66,0.60,2.63,-6.12,1012.68
5.251,-1.21,1.46,-0.64,-12.82,7.13,-4.66,0.60,2.63,-6.12,1012.68
5.252,-1.21,1.46,-0.64,-12.82,7.13,-4.66,1.15,-1.00,-3.82,1012.68
5.253,-1.21,1.46,-0.64,-5.04,6.87,-3.07,1.15,-1.00,-3.82,1012.68
5.297,0.04,1.33,-0.62,-5.04,6.87,-3.07,1.15,-1.00,-3.82,1012.68
5.3,0.04,1.33,-0.62,-5.04,6.87,-3.07,0.69,-2.87,-2.69,1012.68
5.302,0.04,1.33,-0.62,8.18,6.39,-3.44,0.69,-2.87,-2.69,1012.68
5.303,0.04,1.33,-0.62,8.18,6.39,-3.44,0.69,-2.87,-2.69,1012.67
5.324,-0.04,0.67,-0.12,8.18,6.39,-3.44,0.69,-2.87,-2.69,1012.67
5.328,-0.04,0.67,-0.12,8.18,6.39,-3.44,-0.35,-0.75,-2.84,1012.67
5.331,-0.04,0.67,-0.12,8.02,0.81,1.18,-0.35,-0.75,-2.84,1012.67
5.356,-0.04,0.67,-0.12,8.02,0.81,1.18,-0.35,-0.75,-2.84,1012.67
5.399,-0.23,0.58,-0.29,8.02,0.81,1.18,-0.35,-0.75,-2.84,1012.67
5.4,-0.23,0.58,-0.29,6.41,0.67,-0.30,-0.35,-0.75,-2.84,1012.67
5.401,-0.23,0.58,-0.29,6.41,0.67,-0.30,-0.45,1.04,-2.33,1012.67
5.402,-0.05,0.50,-0.36,6.41,0.67,-0.30,-0.45,1.04,-2.33,1012.67
5.402,-0.05,0.50,-0.36,6.41,0.67,-0.30,-0.96,1.76,-1.04,1012.67
5.403,-0.05,0.50,-0.36,8.05,0.09,-0.53,-0.96,1.76,-1.04,1012.67
5.414,-0.05,0.50,-0.36,8.05,0.09,-0.53,-0.96,1.76,-1.04,1012.66
5.442,-0.10,0.09,-0.19,8.05,0.09,-0.53,-0.96,1.76,-1.04,1012.66
5.444,-0.10,0.09,-0.19,8.05,0.09,-0.53,-1.55,2.02,0.35,1012.66
5.446,-0.10,0.09,-0.19,7.13,-4.15,1.52,-1.55,2.02,0.35,1012.66
5.477,-0.10,0.09,-0.19,7.13,-4.15,1.52,-1.55,2.02,0.35,1012.67
5.481,-0.28,0.13,-0.19,7.13,-4.15,1.52,-1.55,2.02,0.35,1012.67
5.482,-0.28,0.13,-0.19,7.13,-4.15,1.52,-1.70,1.79,1.88,1012.67
5.483,-0.28,0.13,-0.19,4.68,-4.46,1.67,-1.70,1.79,1.88,1012.67
5.521,-0.16,0.11,-0.21,4.68,-4.46,1.67,-1.70,1.79,1.88,1012.67
5.524,-0.16,0.11,-0.21,4.68,-4.46,1.67,-1.93,1.83,3.24,1012.67
5.525,-0.16,0.11,-0.21,4.70,-5.74,1.48,-1.93,1.83,3.24,1012.67
5.533,-0.16,0.11,-0.21,4.70,-5.74,1.48,-1.93,1.83,3.24,1012.67
5.561,-0.21,0.16,-0.25,4.70,-5.74,1.48,-1.93,1.83,3.24,1012.67
5.563,-0.21,0.16,-0.25,4.70,-5.74,1.48,-2.05,2.46,3.68,1012.67
5.564,-0.21,0.16,-0.25,2.72,-6.18,0.95,-2.05,2.46,3.68,1012.67
5.595,-0.21,0.16,-0.25,2.72,-6.18,0.95,-2.05,2.46,3.68,1012.66
5.599,-0.66,0.32,-0.73,2.72,-6.18,0.95,-2.05,2.46,3.68,1012.66
5.6,-0.66,0.32,-0.73,2.72,-6.18,0.95,-2.06,2.73,3.18,1012.66
5.601,-0.66,0.32,-0.73,-3.02,-5.29,-3.92,-2.06,2.73,3.18,1012.66
5.639,-1.39,0.07,-0.85,-3.02,-5.29,-3.92,-2.06,2.73,3.18,1012.66
5.643,-1.39,0.07,-0.85,-3.02,-5.29,-3.92,-2.17,2.34,2.07,1012.66
5.645,-1.39,0.07,-0.85,-11.03,-8.18,-5.42,-2.17,2.34,2.07,1012.66
5.668,-1.39,0.07,-0.85,-11.03,-8.18,-5.42,-2.17,2.34,2.07,1012.64
5.709,-1.43,0.15,-0.93,-11.03,-8.18,-5.42,-2.17,2.34,2.07,1012.64
5.713,-1.43,0.15,-0.93,-11.03,-8.18,-5.42,-1.24,0.96,0.99,1012.64
5.716,-1.43,0.15,-0.93,-11.63,-7.49,-6.44,-1.24,0.96,0.99,1012.64
5.717,-1.43,0.15,-0.93,-11.63,-7.49,-6.44,-1.24,0.96,0.99,1012.64
5.718,-1.23,0.22,-1.34,-11.63,-7.49,-6.44,-1.24,0.96,0.99,1012.64
5.719,-1.23,0.22,-1.34,-11.63,-7.49,-6.44,0.35,0.37,-0.51,1012.64
5.72,-1.23,0.22,-1.34,-9.35,-6.55,-10.12,0.35,0.37,-0.51,1012.64
5.76,-0.71,2.84,0.08,-9.35,-6.55,-10.12,0.35,0.37,-0.51,1012.64
5.763,-0.71,2.84,0.08,-9.35,-6.55,-10.12,0.65,-0.87,-1.62,1012.64
5.765,-0.71,2.84,0.08,-3.54,19.04,3.80,0.65,-0.87,-1.62,1012.64
5.774,-0.71,2.84,0.08,-3.54,19.04,3.80,0.65,-0.87,-1.62,1012.64
5.804,0.19,0.44,-0.62,-3.54,19.04,3.80,0.65,-0.87,-1.62,1012.64
5.806,0.19,0.44,-0.62,-3.54,19.04,3.80,0.35,-1.25,-0.21,1012.64
5.809,0.19,0.44,-0.62,5.37,-4.37,-3.02,0.35,-1.25,-0.21,1012.64
5.835,0.19,0.44,-0.62,5.37,-4.37,-3.02,0.35,-1.25,-0.21,1012.63
5.836,-0.72,0.02,0.01,5.37,-4.37,-3.02,0.35,-1.25,-0.21,1012.63
5.837,-0.72,0.02,0.01,5.37,-4.37,-3.02,-0.49,2.98,-1.41,1012.63
5.838,-0.72,0.02,0.01,-3.40,-8.20,3.30,-0.49,2.98,-1.41,1012.63
5.876,-1.78,1.84,-0.69,-3.40,-8.20,3.30,-0.49,2.98,-1.41,1012.63
5.879,-1.78,1.84,-0.69,-3.40,-8.20,3.30,0.74,-0.05,-1.19,1012.63
5.881,-1.78,1.84,-0.69,-13.09,9.75,-3.24,0.74,-0.05,-1.19,1012.63
5.896,-1.78,1.84,-0.69,-13.09,9.75,-3.24,0.74,-0.05,-1.19,1012.63
5.916,-0.15,0.58,-0.36,-13.09,9.75,-3.24,0.74,-0.05,-1.19,1012.63
5.921,-0.15,0.58,-0.36,-13.09,9.75,-3.24,-0.04,-0.52,1.27,1012.63
5.923,-0.15,0.58,-0.36,2.50,-2.77,-0.09,-0.04,-0.52,1.27,1012.63
5.963,-0.40,0.90,-0.43,2.50,-2.77,-0.09,-0.04,-0.52,1.27,1012.63
5.967,-0.40,0.90,-0.43,2.50,-2.77,-0.09,-0.17,0.20,0.44,1012.63
5.969,-0.40,0.90,-0.43,-0.20,0.32,-0.82,-0.17,0.20,0.44,1012.63
5.97,-0.40,0.90,-0.43,-0.20,0.32,-0.82,-0.17,0.20,0.44,1012.64
5.996,-0.76,0.95,-0.30,-0.20,0.32,-0.82,-0.17,0.20,0.44,1012.64
5.998,-0.76,0.95,-0.30,-0.20,0.32,-0.82,-0.44,0.26,0.51,1012.64
5.998,-0.76,0.95,-0.30,-3.80,0.65,0.38,-0.44,0.26,0.51,1012.64
6.014,-0.76,0.95,-0.30,-3.80,0.65,0.38,-0.44,0.26,0.51,1012.64
6.035,-0.21,0.84,-0.17,-3.80,0.65,0.38,-0.44,0.26,0.51,1012.64
6.038,-0.21,0.84,-0.17,-3.80,0.65,0.38,-0.33,-0.42,1.09,1012.64
6.04,-0.21,0.84,-0.17,1.19,-0.61,1.37,-0.33,-0.42,1.09,1012.64
6.075,0.02,0.93,-0.26,1.19,-0.61,1.37,-0.33,-0.42,1.09,1012.64
6.077,0.02,0.93,-0.26,3.16,0.10,0.43,-0.33,-0.42,1.09,1012.64
6.078,0.02,0.93,-0.26,3.16,0.10,0.43,-0.24,-0.21,0.79,1012.64
6.08,0.02,0.93,-0.26,3.16,0.10,0.43,-0.24,-0.21,0.79,1012.63
6.118,-0.05,0.87,-0.19,3.16,0.10,0.43,-0.24,-0.21,0.79,1012.63
6.121,-0.05,0.87,-0.19,3.16,0.10,0.43,-0.27,0.40,0.35,1012.63
6.122,-0.05,0.87,-0.19,2.23,-0.54,1.06,-0.27,0.40,0.35,1012.63
6.133,-0.05,0.87,-0.19,2.23,-0.54,1.06,-0.27,0.40,0.35,1012.63
6.153,-0.15,0.95,-0.19,2.23,-0.54,1.06,-0.27,0.40,0.35,1012.63
6.156,-0.15,0.95,-0.19,2.23,-0.54,1.06,-0.09,0.58,0.00,1012.63
6.156,-0.15,0.95,-0.19,1.20,0.24,1.00,-0.09,0.58,0.00,1012.63
6.192,-0.23,0.96,-0.29,1.20,0.24,1.00,-0.09,0.58,0.00,1012.63
6.194,-0.23,0.96,-0.29,1.20,0.24,1.00,0.01,0.53,-0.24,1012.63
6.195,-0.23,0.96,-0.29,0.43,0.40,0.12,0.01,0.53,-0.24,1012.63
6.196,-0.23,0.96,-0.29,0.43,0.40,0.12,0.01,0.53,-0.24,1012.62
6.23,-0.23,0.95,-0.24,0.43,0.40,0.12,0.01,0.53,-0.24,1012.62
6.231,-0.23,0.95,-0.24,0.52,0.34,0.68,0.01,0.53,-0.24,1012.62
6.232,-0.23,0.95,-0.24,0.52,0.34,0.68,0.06,0.26,-0.40,1012.62
6.247,-0.23,0.95,-0.24,0.52,0.34,0.68,0.06,0.26,-0.40,1012.62
6.271,-0.19,1.01,-0.29,0.52,0.34,0.68,0.06,0.26,-0.40,1012.62
6.271,-0.19,1.01,-0.29,0.52,0.34,0.68,0.15,0.07,-0.58,1012.62
6.272,-0.19,1.01,-0.29,1.11,1.00,0.23,0.15,0.07,-0.58,1012.62
6.311,-0.33,0.94,-0.38,1.11,1.00,0.23,0.15,0.07,-0.58,1012.62
6.312,-0.33,0.94,-0.38,-0.02,0.40,-0.61,0.15,0.07,-0.58,1012.62
6.314,-0.33,0.94,-0.38,-0.02,0.40,-0.61,0.06,0.27,-0.74,1012.62
6.314,-0.33,0.94,-0.38,-0.02,0.40,-0.61,0.06,0.27,-0.74,1012.62
6.37,-0.33,0.94,-0.38,-0.02,0.40,-0.61,0.06,0.27,-0.74,1012.62
6.386,-0.33,0.94,-0.38,-0.02,0.40,-0.61,-0.03,0.03,-0.72,1012.62
6.387,-0.33,0.94,-0.38,-0.02,0.40,-0.61,-0.05,-0.33,-0.52,1012.62
6.387,-0.33,0.94,-0.38,0.22,0.48,-0.61,-0.05,-0.33,-0.52,1012.62
6.388,-0.33,0.94,-0.38,0.43,0.54,-0.66,-0.05,-0.33,-0.52,1012.62
6.426,-0.33,0.94,-0.38,0.43,0.54,-0.66,-0.34,-0.18,-0.89,1012.62
6.427,-0.61,1.48,0.02,0.43,0.54,-0.66,-0.34,-0.18,-0.89,1012.62
6.427,-0.61,1.48,0.02,0.74,0.62,-0.79,-0.34,-0.18,-0.89,1012.62
6.429,-0.61,1.48,0.02,0.74,0.62,-0.79,-0.34,-0.18,-0.89,1012.61
6.469,-0.61,1.48,0.02,0.74,0.62,-0.79,-0.37,-0.29,-0.91,1012.61
6.47,-0.37,1.63,0.15,0.74,0.62,-0.79,-0.37,-0.29,-0.91,1012.61
6.471,-0.02,1.55,0.10,0.74,0.62,-0.79,-0.37,-0.29,-0.91,1012.61
6.472,-0.02,1.55,0.10,1.02,6.62,3.59,-0.37,-0.29,-0.91,1012.61
6.49,-0.02,1.55,0.10,1.02,6.62,3.59,-0.37,-0.29,-0.91,1012.61
6.506,-0.02,1.55,0.10,1.02,6.62,3.59,-0.41,-0.22,-1.12,1012.61
6.507,0.12,1.63,0.06,1.02,6.62,3.59,-0.41,-0.22,-1.12,1012.61
6.507,-0.07,1.52,0.10,1.02,6.62,3.59,-0.41,-0.22,-1.12,1012.61
6.508,-0.07,1.52,0.10,1.39,6.67,3.36,-0.41,-0.22,-1.12,1012.61
6.572,-0.07,1.52,0.10,1.39,6.67,3.36,-0.21,-0.16,-1.58,1012.61
6.575,-0.07,1.52,0.10,5.20,6.10,2.51,-0.21,-0.16,-1.58,1012.61
6.576,-0.03,1.28,-0.11,5.20,6.10,2.51,-0.21,-0.16,-1.58,1012.61
6.577,0.44,1.36,-0.31,5.20,6.10,2.51,-0.21,-0.16,-1.58,1012.61
6.578,0.44,1.36,-0.31,5.20,6.10,2.51,-0.21,-0.16,-1.58,1012.62
6.638,0.44,1.36,-0.31,5.20,6.10,2.51,-0.50,2.93,-2.19,1012.62
6.639,0.76,1.53,-0.57,5.20,6.10,2.51,-0.50,2.93,-2.19,1012.62
6.64,0.01,1.48,-1.05,5.20,6.10,2.51,-0.50,2.93,-2.19,1012.62
6.64,0.01,1.48,-1.05,9.32,6.19,-3.43,-0.50,2.93,-2.19,1012.62
6.641,0.01,1.48,-1.05,9.32,6.19,-3.43,-0.50,2.93,-2.19,1012.63
6.641,0.01,1.48,-1.05,9.32,6.19,-3.43,-1.43,4.52,-4.20,1012.63
6.642,0.01,1.48,-1.05,9.87,6.85,-2.79,-1.43,4.52,-4.20,1012.63
6.642,-1.38,1.06,-1.01,9.87,6.85,-2.79,-1.43,4.52,-4.20,1012.63
6.643,-1.77,0.71,-0.63,9.87,6.85,-2.79,-1.43,4.52,-4.20,1012.63
6.666,-1.77,0.71,-0.63,9.87,6.85,-2.79,-1.28,0.75,-2.53,1012.63
6.672,-1.77,0.71,-0.63,-6.91,1.65,-3.58,-1.28,0.75,-2.53,1012.63
6.673,-1.00,0.87,-0.48,-6.91,1.65,-3.58,-1.28,0.75,-2.53,1012.63
6.674,-0.43,1.06,-0.85,-6.91,1.65,-3.58,-1.28,0.75,-2.53,1012.63
6.675,-0.43,1.06,-0.85,-6.91,1.65,-3.58,-1.28,0.75,-2.53,1012.62
6.704,-0.43,1.06,-0.85,-6.91,1.65,-3.58,-1.14,-1.44,-1.36,1012.62
6.706,-0.27,1.03,-0.99,-6.91,1.65,-3.58,-1.14,-1.44,-1.36,1012.62
6.707,-0.07,0.86,-0.81,-6.91,1.65,-3.58,-1.14,-1.44,-1.36,1012.62
6.709,-0.07,0.86,-0.81,4.57,2.83,-5.90,-1.14,-1.44,-1.36,1012.62
6.73,-0.07,0.86,-0.81,4.57,2.83,-5.90,-1.14,-1.44,-1.36,1012.62
6.743,-0.07,0.86,-0.81,4.57,2.83,-5.90,-2.22,0.26,-1.45,1012.62
6.745,0.02,0.68,-0.62,4.57,2.83,-5.90,-2.22,0.26,-1.45,1012.62
6.746,-0.06,0.58,-0.65,4.57,2.83,-5.90,-2.22,0.26,-1.45,1012.62
6.747,-0.06,0.58,-0.65,4.84,2.98,-6.30,-2.22,0.26,-1.45,1012.62
6.783,-0.06,0.58,-0.65,4.84,2.98,-6.30,-2.30,2.24,-1.58,1012.62
6.787,-0.15,0.60,-0.88,4.84,2.98,-6.30,-2.30,2.24,-1.58,1012.62
6.788,-0.19,0.65,-1.04,4.84,2.98,-6.30,-2.30,2.24,-1.58,1012.62
6.79,-0.19,0.65,-1.04,6.83,-0.31,-4.53,-2.30,2.24,-1.58,1012.62
6.793,-0.19,0.65,-1.04,6.83,-0.31,-4.53,-2.30,2.24,-1.58,1012.62
6.824,-0.19,0.65,-1.04,6.83,-0.31,-4.53,-2.29,2.98,-1.31,1012.62
6.829,-0.22,0.66,-1.18,6.83,-0.31,-4.53,-2.29,2.98,-1.31,1012.62
6.832,-0.29,0.64,-1.21,6.83,-0.31,-4.53,-2.29,2.98,-1.31,1012.62
6.832,-0.29,0.64,-1.21,5.12,0.10,-8.25,-2.29,2.98,-1.31,1012.62
6.85,-0.29,0.64,-1.21,5.12,0.10,-8.25,-2.29,2.98,-1.31,1012.62
6.885,-0.29,0.64,-1.21,4.95,0.05,-7.98,-2.29,2.98,-1.31,1012.62
6.887,-0.29,0.64,-1.21,4.95,0.05,-7.98,-2.62,2.67,-0.93,1012.62
6.888,-0.34,0.59,-1.15,4.95,0.05,-7.98,-2.62,2.67,-0.93,1012.62
6.889,-0.39,0.55,-1.18,4.95,0.05,-7.98,-2.62,2.67,-0.93,1012.62
6.901,-0.39,0.55,-1.18,4.95,0.05,-7.98,-2.65,2.03,-0.41,1012.62
6.902,-0.39,0.55,-1.18,3.14,-1.09,-8.42,-2.65,2.03,-0.41,1012.62
6.903,-0.46,0.52,-1.24,3.14,-1.09,-8.42,-2.65,2.03,-0.41,1012.62
6.904,-0.48,0.45,-1.24,3.14,-1.09,-8.42,-2.65,2.03,-0.41,1012.62
6.909,-0.48,0.45,-1.24,3.14,-1.09,-8.42,-2.65,2.03,-0.41,1012.61
6.942,-0.48,0.45,-1.24,3.14,-1.09,-8.42,-2.66,1.79,0.44,1012.61
6.946,-0.51,0.38,-1.27,3.14,-1.09,-8.42,-2.66,1.79,0.44,1012.61
6.948,-0.59,0.31,-1.20,3.14,-1.09,-8.42,-2.66,1.79,0.44,1012.61
6.95,-0.59,0.31,-1.20,1.48,-3.19,-8.91,-2.66,1.79,0.44,1012.61
6.982,-0.59,0.31,-1.20,1.48,-3.19,-8.91,-2.66,1.79,0.44,1012.61
6.987,-0.59,0.31,-1.20,1.48,-3.19,-8.91,-2.70,2.05,1.36,1012.61
6.989,-0.64,0.26,-1.05,1.48,-3.19,-8.91,-2.70,2.05,1.36,1012.61
6.991,-0.64,0.25,-0.93,1.48,-3.19,-8.91,-2.70,2.05,1.36,1012.61
6.992,-0.64,0.25,-0.93,0.83,-3.79,-9.01,-2.70,2.05,1.36,1012.61
7.023,-0.64,0.25,-0.93,0.83,-3.79,-9.01,-2.48,2.41,2.26,1012.61
7.025,-0.60,0.26,-0.78,0.83,-3.79,-9.01,-2.48,2.41,2.26,1012.61
7.027,-0.51,0.26,-0.70,0.83,-3.79,-9.01,-2.48,2.41,2.26,1012.61
7.029,-0.51,0.26,-0.70,-1.11,-5.69,-6.08,-2.48,2.41,2.26,1012.61
7.03,-0.51,0.26,-0.70,-1.11,-5.69,-6.08,-2.48,2.41,2.26,1012.61
7.061,-0.51,0.26,-0.70,-1.11,-5.69,-6.08,-2.19,3.24,2.76,1012.61
7.064,-0.38,0.29,-0.67,-1.11,-5.69,-6.08,-2.19,3.24,2.76,1012.61
7.065,-0.34,0.33,-0.71,-1.11,-5.69,-6.08,-2.19,3.24,2.76,1012.61
7.066,-0.34,0.33,-0.71,-0.27,-5.91,-3.93,-2.19,3.24,2.76,1012.61
7.11,-0.34,0.33,-0.71,-0.27,-5.91,-3.93,-2.19,3.24,2.76,1012.61
7.112,-0.34,0.33,-0.71,-0.27,-5.91,-3.93,-2.17,4.30,2.70,1012.61
7.114,-0.48,0.36,-0.81,-0.27,-5.91,-3.93,-2.17,4.30,2.70,1012.61
7.116,-0.71,0.35,-0.78,-0.27,-5.91,-3.93,-2.17,4.30,2.70,1012.61
7.117,-0.71,0.35,-0.78,-1.66,-6.35,-4.13,-2.17,4.30,2.70,1012.61
7.139,-0.71,0.35,-0.78,-1.66,-6.35,-4.13,-2.20,3.70,2.40,1012.61
7.142,-0.71,0.35,-0.78,-5.85,-6.21,-5.32,-2.20,3.70,2.40,1012.61
7.144,-0.97,0.31,-0.70,-5.85,-6.21,-5.32,-2.20,3.70,2.40,1012.61
7.145,-1.21,0.35,-0.53,-5.85,-6.21,-5.32,-2.20,3.70,2.40,1012.61
7.151,-1.21,0.35,-0.53,-5.85,-6.21,-5.32,-2.20,3.70,2.40,1012.60
7.2,-1.21,0.35,-0.53,-5.85,-6.21,-5.32,-1.72,1.69,1.95,1012.60
7.204,-1.13,0.51,-0.44,-5.85,-6.21,-5.32,-1.72,1.69,1.95,1012.60
7.206,-0.79,0.64,-0.56,-5.85,-6.21,-5.32,-1.72,1.69,1.95,1012.60
7.207,-0.79,0.64,-0.56,-9.73,-4.72,-3.39,-1.72,1.69,1.95,1012.60
7.21,-0.79,0.64,-0.56,-9.73,-4.72,-3.39,-1.72,1.69,1.95,1012.60
7.251,-0.79,0.64,-0.56,-9.73,-4.72,-3.39,-1.21,1.30,0.86,1012.60
7.253,-0.62,0.64,-0.53,-9.73,-4.72,-3.39,-1.21,1.30,0.86,1012.60
7.254,-0.63,0.55,-0.46,-9.73,-4.72,-3.39,-1.21,1.30,0.86,1012.60
7.255,-0.63,0.55,-0.46,-9.96,-4.72,-3.77,-1.21,1.30,0.86,1012.60
7.258,-0.63,0.55,-0.46,-9.96,-4.72,-3.77,-0.77,2.43,-0.72,1012.60
7.26,-0.67,0.45,-0.41,-9.96,-4.72,-3.77,-0.77,2.43,-0.72,1012.60
7.261,-0.80,0.26,-0.31,-9.96,-4.72,-3.77,-0.77,2.43,-0.72,1012.60
7.262,-0.80,0.26,-0.31,-5.76,-4.21,-3.55,-0.77,2.43,-0.72,1012.60
7.269,-0.80,0.26,-0.31,-5.76,-4.21,-3.55,-0.77,2.43,-0.72,1012.60
7.296,-0.80,0.26,-0.31,-5.76,-4.21,-3.55,0.83,2.36,-2.61,1012.60
7.298,-0.80,0.26,-0.31,-13.20,3.10,-8.83,0.83,2.36,-2.61,1012.60
7.3,-1.14,0.77,-1.44,-13.20,3.10,-8.83,0.83,2.36,-2.61,1012.60
7.302,-2.60,2.83,-1.44,-13.20,3.10,-8.83,0.83,2.36,-2.61,1012.60
7.333,-2.60,2.83,-1.44,-13.20,3.10,-8.83,0.83,2.36,-2.61,1012.59
7.336,-2.60,2.83,-1.44,-13.20,3.10,-8.83,0.27,-1.17,-1.48,1012.59
7.337,-1.05,0.95,2.34,-13.20,3.10,-8.83,0.27,-1.17,-1.48,1012.59
7.337,0.83,0.04,-0.35,-13.20,3.10,-8.83,0.27,-1.17,-1.48,1012.59
7.338,0.83,0.04,-0.35,-12.36,3.17,-8.68,0.27,-1.17,-1.48,1012.59
7.377,0.83,0.04,-0.35,4.48,-2.96,1.16,0.27,-1.17,-1.48,1012.59
7.38,0.83,0.04,-0.35,4.48,-2.96,1.16,0.97,-0.16,0.54,1012.59
7.381,0.92,0.96,-2.26,4.48,-2.96,1.16,0.97,-0.16,0.54,1012.59
7.383,-0.33,0.95,0.43,4.48,-2.96,1.16,0.97,-0.16,0.54,1012.59
7.388,-0.33,0.95,0.43,4.48,-2.96,1.16,0.97,-0.16,0.54,1012.59
7.414,-0.33,0.95,0.43,4.48,-2.96,1.16,-0.40,2.55,-2.14,1012.59
7.418,-1.91,0.36,0.05,4.48,-2.96,1.16,-0.40,2.55,-2.14,1012.59
7.419,-1.46,0.81,-0.23,4.48,-2.96,1.16,-0.40,2.55,-2.14,1012.59
7.42,-1.46,0.81,-0.23,-9.18,-2.19,2.93,-0.40,2.55,-2.14,1012.59
7.455,-1.46,0.81,-0.23,-9.18,-2.19,2.93,-0.40,2.55,-2.14,1012.59
7.457,-1.46,0.81,-0.23,-9.18,-2.19,2.93,0.41,0.41,-0.07,1012.59
7.458,-0.48,1.43,-0.31,-9.18,-2.19,2.93,0.41,0.41,-0.07,1012.59
7.46,-0.14,1.24,-0.63,-9.18,-2.19,2.93,0.41,0.41,-0.07,1012.59
7.464,-0.14,1.24,-0.63,-9.04,-2.11,3.07,0.41,0.41,-0.07,1012.59
7.493,-0.14,1.24,-0.63,-9.04,-2.11,3.07,0.23,-0.22,0.45,1012.59
7.494,-0.14,1.24,-0.63,0.23,2.43,-1.64,0.23,-0.22,0.45,1012.59
7.497,-0.21,0.86,-0.28,0.23,2.43,-1.64,0.23,-0.22,0.45,1012.59
7.498,-0.60,0.72,-0.21,0.23,2.43,-1.64,0.23,-0.22,0.45,1012.59
7.507,-0.60,0.72,-0.21,0.23,2.43,-1.64,0.23,-0.22,0.45,1012.59
7.533,-0.60,0.72,-0.21,0.23,2.43,-1.64,-0.09,0.84,0.18,1012.59
7.534,-0.60,0.72,-0.21,-3.37,-0.54,-0.24,-0.09,0.84,0.18,1012.59
7.535,-0.74,0.88,-0.23,-3.37,-0.54,-0.24,-0.09,0.84,0.18,1012.59
7.535,-0.55,1.03,-0.36,-3.37,-0.54,-0.24,-0.09,0.84,0.18,1012.59
7.572,-0.55,1.03,-0.36,-3.37,-0.54,-0.24,-0.09,0.84,0.18,1012.59
7.573,-0.55,1.03,-0.36,-3.37,-0.54,-0.24,-0.06,0.40,0.64,1012.59
7.582,-0.44,0.94,-0.40,-3.37,-0.54,-0.24,-0.06,0.40,0.64,1012.59
7.582,-0.47,0.86,-0.18,-3.37,-0.54,-0.24,-0.06,0.40,0.64,1012.59
7.583,-0.47,0.86,-0.18,-3.58,-0.60,-0.21,-0.06,0.40,0.64,1012.59
7.612,-0.47,0.86,-0.18,-3.58,-0.60,-0.21,-0.06,-0.07,0.88,1012.59
7.614,-0.47,0.86,-0.18,-1.78,-0.43,-0.03,-0.06,-0.07,0.88,1012.59
7.615,-0.34,0.91,-0.16,-1.78,-0.43,-0.03,-0.06,-0.07,0.88,1012.59
7.616,-0.11,0.94,-0.29,-1.78,-0.43,-0.03,-0.06,-0.07,0.88,1012.59
7.627,-0.11,0.94,-0.29,-1.78,-0.43,-0.03,-0.06,-0.07,0.88,1012.60
7.653,-0.11,0.94,-0.29,-1.78,-0.43,-0.03,-0.02,0.17,0.79,1012.60
7.656,-0.06,0.94,-0.27,-1.78,-0.43,-0.03,-0.02,0.17,0.79,1012.60
7.657,-0.19,0.91,-0.26,-1.78,-0.43,-0.03,-0.02,0.17,0.79,1012.60
7.658,-0.19,0.91,-0.26,0.86,-0.25,-0.27,-0.02,0.17,0.79,1012.60
7.69,-0.19,0.91,-0.26,0.86,-0.25,-0.27,-0.02,0.17,0.79,1012.59
7.695,-0.19,0.91,-0.26,0.86,-0.25,-0.27,0.03,0.01,0.56,1012.59
7.697,-0.21,0.89,-0.26,0.86,-0.25,-0.27,0.03,0.01,0.56,1012.59
7.699,-0.07,0.93,-0.15,0.86,-0.25,-0.27,0.03,0.01,0.56,1012.59
7.701,-0.07,0.93,-0.15,0.64,-0.29,-0.25,0.03,0.01,0.56,1012.59
7.734,-0.07,0.93,-0.15,0.64,-0.29,-0.25,0.20,-0.19,0.42,1012.59
7.737,-0.07,0.93,-0.15,0.93,-0.26,0.42,0.20,-0.19,0.42,1012.59
7.739,0.06,0.98,-0.21,0.93,-0.26,0.42,0.20,-0.19,0.42,1012.59
7.741,0.04,1.01,-0.27,0.93,-0.26,0.42,0.20,-0.19,0.42,1012.59
7.749,0.04,1.01,-0.27,0.93,-0.26,0.42,0.20,-0.19,0.42,1012.60
7.771,0.04,1.01,-0.27,0.93,-0.26,0.42,0.26,0.06,0.03,1012.60
7.774,0.04,1.01,-0.27,0.74,0.27,0.18,0.26,0.06,0.03,1012.60
7.778,-0.11,0.98,-0.22,0.74,0.27,0.18,0.26,0.06,0.03,1012.60
7.78,-0.19,0.96,-0.24,0.74,0.27,0.18,0.26,0.06,0.03,1012.60
7.807,-0.19,0.96,-0.24,0.74,0.27,0.18,0.26,0.06,0.03,1012.60
7.809,-0.19,0.96,-0.24,0.74,0.27,0.18,0.34,-0.18,-0.18,1012.60
7.81,-0.17,0.92,-0.36,0.74,0.27,0.18,0.34,-0.18,-0.18,1012.60
7.811,-0.17,0.92,-0.24,0.74,0.27,0.18,0.34,-0.18,-0.18,1012.60
7.812,-0.17,0.92,-0.24,0.81,0.31,0.29,0.34,-0.18,-0.18,1012.60
7.848,-0.17,0.92,-0.24,0.81,0.31,0.29,0.39,-0.42,-0.30,1012.60
7.849,-0.11,1.00,-0.28,0.81,0.31,0.29,0.39,-0.42,-0.30,1012.60
7.849,-0.07,1.11,-0.43,0.81,0.31,0.29,0.39,-0.42,-0.30,1012.60
7.85,-0.07,1.11,-0.43,0.38,0.00,-0.11,0.39,-0.42,-0.30,1012.60
7.873,-0.07,1.11,-0.43,0.38,0.00,-0.11,0.39,-0.42,-0.30,1012.61
7.928,-0.07,1.11,-0.43,0.38,0.00,-0.11,0.30,-0.37,-0.42,1012.61
7.929,-0.26,1.10,-0.40,0.38,0.00,-0.11,0.30,-0.37,-0.42,1012.61
7.93,-0.35,1.05,-0.35,0.38,0.00,-0.11,0.30,-0.37,-0.42,1012.61
7.931,-0.35,1.05,-0.35,-0.19,1.44,-0.94,0.30,-0.37,-0.42,1012.61
7.931,-0.35,1.05,-0.35,-0.19,1.44,-0.94,0.30,-0.37,-0.42,1012.60
7.932,-0.35,1.05,-0.35,-0.19,1.44,-0.94,0.20,-0.73,-0.28,1012.60
7.932,-0.35,1.05,-0.35,-0.01,1.46,-0.91,0.20,-0.73,-0.28,1012.60
7.933,-0.24,1.09,-0.43,-0.01,1.46,-0.91,0.20,-0.73,-0.28,1012.60
7.933,-0.22,1.16,-0.55,-0.01,1.46,-0.91,0.20,-0.73,-0.28,1012.60
7.976,-0.22,1.16,-0.55,-0.01,1.46,-0.91,0.02,-1.08,-0.10,1012.60
7.981,-0.37,1.22,-0.41,-0.01,1.46,-0.91,0.02,-1.08,-0.10,1012.60
7.983,-0.60,1.43,-0.14,-0.01,1.46,-0.91,0.02,-1.08,-0.10,1012.60
7.984,-0.60,1.43,-0.14,-0.33,2.12,-1.69,0.02,-1.08,-0.10,1012.60
8.019,-0.60,1.43,-0.14,-0.33,2.12,-1.69,0.02,-1.08,-0.10,1012.60
8.02,-0.60,1.43,-0.14,-0.33,2.12,-1.69,-0.08,-1.04,0.08,1012.60
8.021,-0.51,1.55,-0.01,-0.33,2.12,-1.69,-0.08,-1.04,0.08,1012.60
8.022,0.13,1.61,-0.12,-0.33,2.12,-1.69,-0.08,-1.04,0.08,1012.60
8.022,0.13,1.61,-0.12,-0.72,5.64,1.82,-0.08,-1.04,0.08,1012.60
8.049,0.13,1.61,-0.12,-0.58,5.56,1.73,-0.08,-1.04,0.08,1012.60
8.052,0.13,1.61,-0.12,-0.58,5.56,1.73,-0.08,-1.04,0.08,1012.61
8.054,0.13,1.61,-0.12,-0.58,5.56,1.73,-0.03,-0.49,-0.22,1012.61
8.056,0.63,1.70,-0.13,-0.58,5.56,1.73,-0.03,-0.49,-0.22,1012.61
8.058,0.52,1.47,-0.06,-0.58,5.56,1.73,-0.03,-0.49,-0.22,1012.61
8.099,0.52,1.47,-0.06,-0.58,5.56,1.73,0.38,0.22,-1.99,1012.61
8.102,0.24,1.46,-0.37,-0.58,5.56,1.73,0.38,0.22,-1.99,1012.61
8.104,-0.30,1.87,-0.73,-0.58,5.56,1.73,0.38,0.22,-1.99,1012.61
8.106,-0.30,1.87,-0.73,7.71,5.91,0.94,0.38,0.22,-1.99,1012.61
8.107,-0.30,1.87,-0.73,7.71,5.91,0.94,0.38,0.22,-1.99,1012.61
8.136,-0.30,1.87,-0.73,7.71,5.91,0.94,0.90,0.43,-3.74,1012.61
8.138,-0.30,1.87,-0.73,-7.27,7.28,-2.10,0.90,0.43,-3.74,1012.61
8.139,-1.49,1.74,-0.65,-7.27,7.28,-2.10,0.90,0.43,-3.74,1012.61
8.14,-1.83,1.28,-0.23,-7.27,7.28,-2.10,0.90,0.43,-3.74,1012.61
8.18,-1.83,1.28,-0.23,-7.27,7.28,-2.10,1.23,-2.09,-2.51,1012.61
8.185,-1.83,1.28,-0.23,-6.07,7.81,-2.09,1.23,-2.09,-2.51,1012.61
8.187,-1.83,1.28,-0.23,-6.07,7.81,-2.09,1.23,-2.09,-2.51,1012.60
8.189,-0.77,1.45,-0.70,-6.07,7.81,-2.09,1.23,-2.09,-2.51,1012.60
8.19,-0.21,1.51,-0.76,-6.07,7.81,-2.09,1.23,-2.09,-2.51,1012.60
8.222,-0.21,1.51,-0.76,-6.07,7.81,-2.09,0.71,-2.51,-2.15,1012.60
8.226,-0.24,1.16,-0.47,-6.07,7.81,-2.09,0.71,-2.51,-2.15,1012.60
8.227,-0.35,0.83,-0.22,-6.07,7.81,-2.09,0.71,-2.51,-2.15,1012.60
8.229,-0.35,0.83,-0.22,2.71,5.79,-3.46,0.71,-2.51,-2.15,1012.60
8.23,-0.35,0.83,-0.22,2.71,5.79,-3.46,0.71,-2.51,-2.15,1012.60
8.244,-0.35,0.83,-0.22,2.71,5.79,-3.46,0.21,-0.87,-2.23,1012.60
8.246,-0.35,0.83,-0.22,3.45,-0.23,0.71,0.21,-0.87,-2.23,1012.60
8.247,-0.44,0.65,-0.19,3.45,-0.23,0.71,0.21,-0.87,-2.23,1012.60
8.247,-0.41,0.59,-0.18,3.45,-0.23,0.71,0.21,-0.87,-2.23,1012.60
8.3,-0.41,0.59,-0.18,3.45,-0.23,0.71,0.18,0.11,-1.42,1012.60
8.303,-0.24,0.57,-0.26,3.45,-0.23,0.71,0.18,0.11,-1.42,1012.60
8.306,-0.08,0.53,-0.32,3.45,-0.23,0.71,0.18,0.11,-1.42,1012.60
8.307,-0.08,0.53,-0.32,3.45,-0.23,0.71,0.18,0.11,-1.42,1012.58
8.309,-0.08,0.53,-0.32,3.76,0.21,0.78,0.18,0.11,-1.42,1012.58
8.347,-0.08,0.53,-0.32,3.76,0.21,0.78,-0.24,0.93,-0.55,1012.58
8.352,-0.08,0.42,-0.31,3.76,0.21,0.78,-0.24,0.93,-0.55,1012.58
8.354,-0.18,0.21,-0.24,3.76,0.21,0.78,-0.24,0.93,-0.55,1012.58
8.356,-0.18,0.21,-0.24,6.32,-1.45,0.04,-0.24,0.93,-0.55,1012.58
8.358,-0.18,0.21,-0.24,6.32,-1.45,0.04,-0.24,0.93,-0.55,1012.56
8.366,-0.18,0.21,-0.24,6.32,-1.45,0.04,-0.60,1.04,0.40,1012.56
8.369,-0.18,0.21,-0.24,4.50,-5.87,1.79,-0.60,1.04,0.40,1012.56
8.371,-0.31,0.02,-0.08,4.50,-5.87,1.79,-0.60,1.04,0.40,1012.56
8.372,-0.37,-0.04,-0.06,4.50,-5.87,1.79,-0.60,1.04,0.40,1012.56
8.403,-0.37,-0.04,-0.06,4.50,-5.87,1.79,-0.45,0.55,1.76,1012.56
8.404,-0.37,-0.04,-0.06,3.90,-6.31,1.80,-0.45,0.55,1.76,1012.56
8.405,-0.23,0.05,-0.10,3.90,-6.31,1.80,-0.45,0.55,1.76,1012.56
8.405,-0.11,0.07,-0.12,3.90,-6.31,1.80,-0.45,0.55,1.76,1012.56
8.406,-0.11,0.07,-0.12,3.90,-6.31,1.80,-0.45,0.55,1.76,1012.55
8.442,-0.11,0.07,-0.12,3.90,-6.31,1.80,-0.47,0.92,2.67,1012.55
8.446,-0.18,-0.03,-0.16,3.90,-6.31,1.80,-0.47,0.92,2.67,1012.55
8.447,-0.39,-0.06,-0.16,3.90,-6.31,1.80,-0.47,0.92,2.67,1012.55
8.449,-0.39,-0.06,-0.16,4.06,-7.23,1.87,-0.47,0.92,2.67,1012.55
8.473,-0.39,-0.06,-0.16,4.06,-7.23,1.87,-0.47,0.92,2.67,1012.55
8.516,-0.39,-0.06,-0.16,4.06,-7.23,1.87,-0.62,1.04,2.97,1012.55
8.518,-0.57,-0.02,-0.09,4.06,-7.23,1.87,-0.62,1.04,2.97,1012.55
8.519,-0.68,0.06,-0.28,4.06,-7.23,1.87,-0.62,1.04,2.97,1012.55
8.52,-0.68,0.06,-0.28,-0.63,-8.14,1.39,-0.62,1.04,2.97,1012.55
8.521,-0.68,0.06,-0.28,-0.63,-8.14,1.39,-0.66,0.49,2.68,1012.55
8.522,-0.82,0.11,-0.22,-0.63,-8.14,1.39,-0.66,0.49,2.68,1012.55
8.522,-0.90,0.16,-0.23,-0.63,-8.14,1.39,-0.66,0.49,2.68,1012.55
8.523,-0.90,0.16,-0.23,-1.55,-8.52,1.24,-0.66,0.49,2.68,1012.55
8.525,-0.90,0.16,-0.23,-1.55,-8.52,1.24,-0.66,0.49,2.68,1012.54
8.561,-0.90,0.16,-0.23,-1.55,-8.52,1.24,-0.71,0.84,1.60,1012.54
8.566,-0.88,0.13,-0.30,-1.55,-8.52,1.24,-0.71,0.84,1.60,1012.54
8.568,-0.87,-0.14,-0.16,-1.55,-8.52,1.24,-0.71,0.84,1.60,1012.54
8.57,-0.87,-0.14,-0.16,-5.24,-7.33,0.38,-0.71,0.84,1.60,1012.54
8.592,-0.87,-0.14,-0.16,-5.24,-7.33,0.38,-0.71,0.84,1.60,1012.54
8.633,-0.87,-0.14,-0.16,-5.24,-7.33,0.38,0.81,1.49,-0.13,1012.54
8.635,-1.44,-0.67,-1.31,-5.24,-7.33,0.38,0.81,1.49,-0.13,1012.54
8.637,-0.81,3.39,-3.73,-5.24,-7.33,0.38,0.81,1.49,-0.13,1012.54
8.638,-0.81,3.39,-3.73,-6.95,-0.08,-13.46,0.81,1.49,-0.13,1012.54
8.64,-0.81,3.39,-3.73,-6.95,-0.08,-13.46,-0.73,0.44,-4.06,1012.54
8.642,-1.46,3.11,3.72,-6.95,-0.08,-13.46,-0.73,0.44,-4.06,1012.54
8.644,-1.26,-0.03,-0.58,-6.95,-0.08,-13.46,-0.73,0.44,-4.06,1012.54
8.646,-1.26,-0.03,-0.58,-5.60,0.43,-13.41,-0.73,0.44,-4.06,1012.54
8.647,-1.26,-0.03,-0.58,-5.60,0.43,-13.41,-0.73,0.44,-4.06,1012.55
8.679,-1.26,-0.03,-0.58,-5.60,0.43,-13.41,0.39,-0.23,0.29,1012.55
8.682,-1.26,-0.03,-0.58,-5.30,0.38,2.41,0.39,-0.23,0.29,1012.55
8.683,-0.32,-0.51,-3.51,-5.30,0.38,2.41,0.39,-0.23,0.29,1012.55
8.684,-0.19,0.21,1.23,-5.30,0.38,2.41,0.39,-0.23,0.29,1012.55
8.705,-0.19,0.21,1.23,-5.30,0.38,2.41,0.39,-0.23,0.29,1012.54
8.719,-0.19,0.21,1.23,-4.53,1.20,4.25,0.39,-0.23,0.29,1012.54
8.721,-0.19,0.21,1.23,-4.53,1.20,4.25,-0.81,1.23,-0.13,1012.54
8.722,-1.17,1.05,0.88,-4.53,1.20,4.25,-0.81,1.23,-0.13,1012.54
8.723,-1.42,1.59,-1.88,-4.53,1.20,4.25,-0.81,1.23,-0.13,1012.54
8.759,-1.42,1.59,-1.88,-4.53,1.20,4.25,-0.21,0.04,0.52,1012.54
8.762,-0.41,1.13,-0.65,-4.53,1.20,4.25,-0.21,0.04,0.52,1012.54
8.764,0.10,0.56,0.04,-4.53,1.20,4.25,-0.21,0.04,0.52,1012.54
8.766,0.10,0.56,0.04,-4.62,1.06,4.12,-0.21,0.04,0.52,1012.54
8.768,0.10,0.56,0.04,-4.62,1.06,4.12,-0.21,0.04,0.52,1012.55
8.798,0.10,0.56,0.04,1.78,-1.10,-0.70,-0.21,0.04,0.52,1012.55
8.799,0.10,0.56,0.04,1.78,-1.10,-0.70,-0.79,0.57,0.58,1012.55
8.8,-0.42,0.56,-0.59,1.78,-1.10,-0.70,-0.79,0.57,0.58,1012.55
8.801,-1.01,0.90,-0.18,1.78,-1.10,-0.70,-0.79,0.57,0.58,1012.55
8.829,-1.01,0.90,-0.18,1.78,-1.10,-0.70,-0.79,0.57,0.58,1012.55
8.837,-1.01,0.90,-0.18,1.78,-1.10,-0.70,-0.48,-0.14,0.45,1012.55
8.837,-0.89,0.97,-0.10,1.78,-1.10,-0.70,-0.48,-0.14,0.45,1012.55
8.838,-0.22,0.89,-0.34,1.78,-1.10,-0.70,-0.48,-0.14,0.45,1012.55
8.838,-0.22,0.89,-0.34,-2.84,0.45,0.99,-0.48,-0.14,0.45,1012.55
8.884,-0.22,0.89,-0.34,-2.84,0.45,0.99,-0.29,-0.26,0.95,1012.55
8.888,-0.04,0.83,-0.36,-2.84,0.45,0.99,-0.29,-0.26,0.95,1012.55
8.89,-0.44,0.84,-0.25,-2.84,0.45,0.99,-0.29,-0.26,0.95,1012.55
8.891,-0.44,0.84,-0.25,-3.08,0.27,0.83,-0.29,-0.26,0.95,1012.55
8.892,-0.44,0.84,-0.25,-3.08,0.27,0.83,-0.29,-0.26,0.95,1012.55
8.917,-0.44,0.84,-0.25,-3.08,0.27,0.83,-0.38,-0.14,0.60,1012.55
8.919,-0.74,0.84,-0.23,-3.08,0.27,0.83,-0.38,-0.14,0.60,1012.55
8.921,-0.59,0.87,-0.26,-3.08,0.27,0.83,-0.38,-0.14,0.60,1012.55
8.922,-0.59,0.87,-0.26,-0.35,-0.68,-0.02,-0.38,-0.14,0.60,1012.55
8.945,-0.59,0.87,-0.26,-0.35,-0.68,-0.02,-0.38,-0.14,0.60,1012.55
8.956,-0.59,0.87,-0.26,-0.35,-0.68,-0.02,-0.26,-0.54,0.91,1012.55
8.959,-0.59,0.87,-0.26,0.31,-0.27,-0.52,-0.26,-0.54,0.91,1012.55
8.961,-0.27,0.90,-0.31,0.31,-0.27,-0.52,-0.26,-0.54,0.91,1012.55
8.963,-0.09,0.91,-0.37,0.31,-0.27,-0.52,-0.26,-0.54,0.91,1012.55
9.003,-0.09,0.91,-0.37,0.31,-0.27,-0.52,-0.39,-0.29,0.79,1012.55
9.007,-0.10,0.94,-0.27,0.31,-0.27,-0.52,-0.39,-0.29,0.79,1012.55
9.008,-0.25,0.96,-0.14,0.31,-0.27,-0.52,-0.39,-0.29,0.79,1012.55
9.009,-0.25,0.96,-0.14,0.06,-0.40,-0.69,-0.39,-0.29,0.79,1012.55
9.01,-0.25,0.96,-0.14,0.06,-0.40,-0.69,-0.39,-0.29,0.79,1012.55
9.035,-0.25,0.96,-0.14,0.06,-0.40,-0.69,-0.41,-0.10,0.48,1012.55
9.037,-0.31,0.98,-0.17,0.06,-0.40,-0.69,-0.41,-0.10,0.48,1012.55
9.038,-0.23,0.93,-0.24,0.06,-0.40,-0.69,-0.41,-0.10,0.48,1012.55
9.038,-0.23,0.93,-0.24,0.81,0.14,0.34,-0.41,-0.10,0.48,1012.55
9.07,-0.23,0.93,-0.24,0.81,0.14,0.34,-0.41,-0.10,0.48,1012.55
9.11,-0.23,0.93,-0.24,0.81,0.14,0.34,-0.29,-0.23,0.38,1012.55
9.113,-0.23,0.93,-0.24,1.32,-0.33,0.19,-0.29,-0.23,0.38,1012.55
9.117,-0.15,0.88,-0.19,1.32,-0.33,0.19,-0.29,-0.23,0.38,1012.55
9.119,-0.08,0.94,-0.15,1.32,-0.33,0.19,-0.29,-0.23,0.38,1012.55
9.12,-0.08,0.94,-0.15,1.32,-0.33,0.19,-0.17,-0.31,0.11,1012.55
9.121,-0.01,1.05,-0.24,1.32,-0.33,0.19,-0.17,-0.31,0.11,1012.55
9.122,0.05,1.09,-0.20,1.32,-0.33,0.19,-0.17,-0.31,0.11,1012.55
9.125,0.05,1.09,-0.20,1.28,-0.35,0.09,-0.17,-0.31,0.11,1012.55
9.126,0.05,1.09,-0.20,1.28,-0.35,0.09,-0.17,-0.31,0.11,1012.54
9.153,0.05,1.09,-0.20,1.28,-0.35,0.09,-0.21,-0.06,-0.37,1012.54
9.157,-0.08,1.00,-0.18,1.28,-0.35,0.09,-0.21,-0.06,-0.37,1012.54
9.159,-0.31,0.88,-0.11,1.28,-0.35,0.09,-0.21,-0.06,-0.37,1012.54
9.161,-0.31,0.88,-0.11,2.75,0.94,-0.13,-0.21,-0.06,-0.37,1012.54
9.203,-0.31,0.88,-0.11,2.75,0.94,-0.13,-0.21,-0.06,-0.37,1012.53
9.207,-0.31,0.88,-0.11,2.75,0.94,-0.13,-0.14,-0.12,-0.69,1012.53
9.209,-0.45,0.88,-0.13,2.75,0.94,-0.13,-0.14,-0.12,-0.69,1012.53
9.211,-0.51,0.99,-0.27,2.75,0.94,-0.13,-0.14,-0.12,-0.69,1012.53
9.213,-0.51,0.99,-0.27,-1.00,-0.26,0.16,-0.14,-0.12,-0.69,1012.53
9.275,-0.51,0.99,-0.27,-1.00,-0.26,0.16,-0.09,-0.48,-0.55,1012.53
9.276,-0.45,1.06,-0.57,-1.00,-0.26,0.16,-0.09,-0.48,-0.55,1012.53
9.276,-0.31,0.93,-0.46,-1.00,-0.26,0.16,-0.09,-0.48,-0.55,1012.53
9.277,-0.31,0.93,-0.46,-0.75,-0.19,0.06,-0.09,-0.48,-0.55,1012.53
9.278,-0.31,0.93,-0.46,-0.75,-0.19,0.06,-0.09,-0.48,-0.55,1012.52
9.278,-0.31,0.93,-0.46,-0.75,-0.19,0.06,-0.65,0.01,-0.32,1012.52
9.279,-0.22,0.72,0.01,-0.75,-0.19,0.06,-0.65,0.01,-0.32,1012.52
9.28,-0.38,0.83,-0.01,-0.75,-0.19,0.06,-0.65,0.01,-0.32,1012.52
9.28,-0.38,0.83,-0.01,0.31,-0.32,-1.79,-0.65,0.01,-0.32,1012.52
9.306,-0.38,0.83,-0.01,0.31,-0.32,-1.79,-0.65,0.01,-0.32,1012.52
9.317,-0.38,0.83,-0.01,-1.92,0.10,0.82,-0.65,0.01,-0.32,1012.52
9.318,-0.38,0.83,-0.01,-1.92,0.10,0.82,-0.52,0.01,-0.48,1012.52
9.319,-0.66,1.01,-0.17,-1.92,0.10,0.82,-0.52,0.01,-0.48,1012.52
9.32,-0.69,0.99,0.02,-1.92,0.10,0.82,-0.52,0.01,-0.48,1012.52
9.35,-0.69,0.99,0.02,-1.92,0.10,0.82,-0.21,-0.66,-0.12,1012.52
9.352,-0.69,0.99,0.02,-1.81,0.10,0.64,-0.21,-0.66,-0.12,1012.52
9.352,-0.50,0.85,-0.05,-1.81,0.10,0.64,-0.21,-0.66,-0.12,1012.52
9.353,-0.31,0.86,-0.21,-1.81,0.10,0.64,-0.21,-0.66,-0.12,1012.52
9.365,-0.31,0.86,-0.21,-1.81,0.10,0.64,-0.21,-0.66,-0.12,1012.53
9.391,-0.31,0.86,-0.21,-1.81,0.10,0.64,-0.24,-0.59,-0.01,1012.53
9.394,-0.31,0.94,-0.20,-1.81,0.10,0.64,-0.24,-0.59,-0.01,1012.53
9.396,-0.44,0.92,-0.17,-1.81,0.10,0.64,-0.24,-0.59,-0.01,1012.53
9.398,-0.44,0.92,-0.17,0.16,-0.50,-0.52,-0.24,-0.59,-0.01,1012.53
9.424,-0.44,0.92,-0.17,0.16,-0.50,-0.52,-0.24,-0.59,-0.01,1012.54
9.429,-0.44,0.92,-0.17,0.16,-0.50,-0.52,-0.54,-0.24,-0.11,1012.54
9.431,-0.46,0.93,-0.15,0.16,-0.50,-0.52,-0.54,-0.24,-0.11,1012.54
9.431,-0.41,0.99,-0.11,0.16,-0.50,-0.52,-0.54,-0.24,-0.11,1012.54
9.432,-0.41,0.99,-0.11,-0.36,0.12,-0.64,-0.54,-0.24,-0.11,1012.54
9.484,-0.41,0.99,-0.11,-0.36,0.12,-0.64,-0.62,-0.27,-0.04,1012.54
9.488,-0.31,0.95,-0.17,-0.36,0.12,-0.64,-0.62,-0.27,-0.04,1012.54
9.489,-0.23,0.91,-0.04,-0.36,0.12,-0.64,-0.62,-0.27,-0.04,1012.54
9.49,-0.23,0.91,-0.04,-0.33,0.11,-0.89,-0.62,-0.27,-0.04,1012.54
9.491,-0.23,0.91,-0.04,-0.33,0.11,-0.89,-0.62,-0.27,-0.04,1012.53
9.52,-0.23,0.91,-0.04,-0.33,0.11,-0.89,-0.66,0.10,-0.16,1012.53
9.522,-0.33,0.87,0.05,-0.33,0.11,-0.89,-0.66,0.10,-0.16,1012.53
9.524,-0.45,0.88,0.06,-0.33,0.11,-0.89,-0.66,0.10,-0.16,1012.53
9.525,-0.45,0.88,0.06,1.12,-0.23,-0.23,-0.66,0.10,-0.16,1012.53
9.544,-0.45,0.88,0.06,1.12,-0.23,-0.23,-0.66,0.10,-0.16,1012.53
9.554,-0.45,0.88,0.06,1.12,-0.23,-0.23,-0.45,0.16,-0.25,1012.53
9.558,-0.50,0.89,0.20,1.12,-0.23,-0.23,-0.45,0.16,-0.25,1012.53
9.561,-0.54,0.90,0.24,1.12,-0.23,-0.23,-0.45,0.16,-0.25,1012.53
9.562,-0.54,0.90,0.24,-0.81,-0.40,1.77,-0.45,0.16,-0.25,1012.53
9.602,-0.54,0.90,0.24,-0.81,-0.40,1.77,-0.03,-0.28,-0.12,1012.53
9.606,-0.51,0.96,0.18,-0.81,-0.40,1.77,-0.03,-0.28,-0.12,1012.53
9.608,-0.47,0.93,0.08,-0.81,-0.40,1.77,-0.03,-0.28,-0.12,1012.53
9.61,-0.47,0.93,0.08,-0.75,-0.38,1.68,-0.03,-0.28,-0.12,1012.53
9.611,-0.47,0.93,0.08,-0.75,-0.38,1.68,-0.03,-0.28,-0.12,1012.53
9.642,-0.47,0.93,0.08,-0.75,-0.38,1.68,0.10,-0.31,-0.06,1012.53
9.645,-0.40,0.89,0.01,-0.75,-0.38,1.68,0.10,-0.31,-0.06,1012.53
9.647,-0.48,0.90,-0.03,-0.75,-0.38,1.68,0.10,-0.31,-0.06,1012.53
9.649,-0.48,0.90,-0.03,-0.35,0.02,0.90,0.10,-0.31,-0.06,1012.53
9.663,-0.48,0.90,-0.03,-0.35,0.02,0.90,0.10,-0.31,-0.06,1012.53
9.677,-0.48,0.90,-0.03,-0.35,0.02,0.90,0.06,-0.36,-0.05,1012.53
9.68,-0.56,0.91,-0.01,-0.35,0.02,0.90,0.06,-0.36,-0.05,1012.53
9.681,-0.48,0.91,0.02,-0.35,0.02,0.90,0.06,-0.36,-0.05,1012.53
9.682,-0.48,0.91,0.02,-0.77,-0.16,-0.10,0.06,-0.36,-0.05,1012.53
9.706,-0.48,0.91,0.02,-0.77,-0.16,-0.10,0.12,-0.58,0.08,1012.53
9.707,-0.38,0.94,-0.04,-0.77,-0.16,-0.10,0.12,-0.58,0.08,1012.53
9.708,-0.32,0.94,-0.08,-0.77,-0.16,-0.10,0.12,-0.58,0.08,1012.53
9.709,-0.32,0.94,-0.08,-0.79,-0.17,-0.15,0.12,-0.58,0.08,1012.53
9.723,-0.32,0.94,-0.08,-0.79,-0.17,-0.15,0.12,-0.58,0.08,1012.54
9.747,-0.32,0.94,-0.08,-0.79,-0.17,-0.15,-0.00,-0.28,0.02,1012.54
9.75,-0.36,0.93,0.02,-0.79,-0.17,-0.15,-0.00,-0.28,0.02,1012.54
9.752,-0.49,0.90,0.07,-0.79,-0.17,-0.15,-0.00,-0.28,0.02,1012.54
9.754,-0.49,0.90,0.07,0.69,0.11,-0.43,-0.00,-0.28,0.02,1012.54
9.804,-0.49,0.90,0.07,0.69,0.11,-0.43,-0.00,-0.28,0.02,1012.54
9.808,-0.49,0.90,0.07,0.69,0.11,-0.43,-0.01,-0.17,-0.02,1012.54
9.81,-0.47,0.93,0.00,0.69,0.11,-0.43,-0.01,-0.17,-0.02,1012.54
9.811,-0.39,0.95,0.01,0.69,0.11,-0.43,-0.01,-0.17,-0.02,1012.54
9.812,-0.39,0.95,0.01,-0.29,-0.00,0.13,-0.01,-0.17,-0.02,1012.54
9.831,-0.39,0.95,0.01,-0.29,-0.00,0.13,0.02,-0.24,0.02,1012.54
9.834,-0.42,0.93,0.04,-0.29,-0.00,0.13,0.02,-0.24,0.02,1012.54
9.836,-0.44,0.92,0.03,-0.29,-0.00,0.13,0.02,-0.24,0.02,1012.54
9.838,-0.44,0.92,0.03,-0.29,-0.01,0.09,0.02,-0.24,0.02,1012.54
9.843,-0.44,0.92,0.03,-0.29,-0.01,0.09,0.02,-0.24,0.02,1012.54
9.865,-0.44,0.92,0.03,-0.29,-0.01,0.09,0.01,-0.16,-0.00,1012.54
9.868,-0.42,0.93,0.04,-0.29,-0.01,0.09,0.01,-0.16,-0.00,1012.54
9.87,-0.42,0.92,0.04,-0.29,-0.01,0.09,0.01,-0.16,-0.00,1012.54
9.873,-0.42,0.92,0.04,-0.02,-0.00,0.15,0.01,-0.16,-0.00,1012.54
9.905,-0.42,0.92,0.04,-0.02,-0.00,0.15,0.01,-0.16,-0.00,1012.55
9.945,-0.42,0.92,0.04,-0.02,-0.00,0.15,0.00,-0.10,-0.02,1012.55
9.947,-0.42,0.92,0.04,-0.02,-0.00,0.15,0.01,-0.08,-0.01,1012.55
9.947,-0.42,0.92,0.04,-0.01,0.00,0.13,0.01,-0.08,-0.01,1012.55
9.948,-0.42,0.92,0.04,-0.01,0.00,0.12,0.01,-0.08,-0.01,1012.55
9.973,-0.42,0.92,0.04,-0.01,0.00,0.12,0.01,-0.08,-0.01,1012.55
10.024,-0.42,0.92,0.04,-0.01,0.00,0.12,-0.02,-0.01,-0.01,1012.55
10.026,-0.42,0.92,0.04,-0.01,0.00,0.12,-0.05,0.07,-0.03,1012.55
10.026,-0.42,0.92,0.04,-0.01,0.01,0.11,-0.05,0.07,-0.03,1012.55
10.027,-0.42,0.92,0.04,0.01,0.01,0.10,-0.05,0.07,-0.03,1012.55
10.028,-0.42,0.92,0.04,0.01,0.01,0.10,-0.05,0.07,-0.03,1012.55
10.065,-0.42,0.92,0.04,0.01,0.01,0.10,-0.02,0.06,-0.02,1012.55
10.066,-0.41,0.93,0.01,0.01,0.01,0.10,-0.02,0.06,-0.02,1012.55
10.067,-0.41,0.93,0.01,0.22,0.03,-0.12,-0.02,0.06,-0.02,1012.55
10.085,-0.41,0.93,0.01,0.22,0.03,-0.12,-0.02,0.06,-0.02,1012.56
10.103,-0.41,0.93,0.01,0.22,0.03,-0.12,-0.06,0.14,-0.06,1012.56
10.104,-0.43,0.93,0.03,0.22,0.03,-0.12,-0.06,0.14,-0.06,1012.56
10.105,-0.43,0.93,0.03,0.03,0.04,0.02,-0.06,0.14,-0.06,1012.56
