time,gFx,gFy,gFz,ax,ay,az,wx,wy,wz,P
0.012,-0.17,0.99,-0.01,-0.46,-0.05,0.26,-0.01,0.12,-0.01,1012.87
0.013,-0.17,0.99,-0.01,-0.46,-0.05,0.26,-0.00,0.06,0.02,1012.87
0.014,-0.17,0.99,-0.01,-0.18,-0.04,0.10,-0.00,0.06,0.02,1012.87
0.027,-0.17,0.99,-0.01,-0.18,-0.04,0.10,-0.00,0.06,0.02,1012.86
0.05,-0.22,1.00,-0.04,-0.18,-0.04,0.10,-0.00,0.06,0.02,1012.86
0.051,-0.22,1.00,-0.04,-0.18,-0.04,0.10,-0.02,0.23,0.08,1012.86
0.052,-0.22,1.00,-0.04,-0.67,0.05,-0.18,-0.02,0.23,0.08,1012.86
0.084,-0.22,1.00,-0.04,-0.67,0.05,-0.18,-0.02,0.23,0.08,1012.86
0.098,-0.22,1.03,-0.03,-0.67,0.05,-0.18,-0.02,0.23,0.08,1012.86
0.1,-0.22,1.03,-0.03,-0.67,0.05,-0.18,-0.03,0.12,0.20,1012.86
0.101,-0.22,1.03,-0.03,-0.75,0.25,-0.08,-0.03,0.12,0.20,1012.86
0.13,-0.12,0.98,-0.03,-0.75,0.25,-0.08,-0.03,0.12,0.20,1012.86
0.131,-0.12,0.98,-0.03,-0.75,0.25,-0.08,-0.06,0.09,0.29,1012.86
0.131,-0.12,0.98,-0.03,0.10,-0.18,-0.06,-0.06,0.09,0.29,1012.86
0.144,-0.12,0.98,-0.03,0.10,-0.18,-0.06,-0.06,0.09,0.29,1012.86
0.169,-0.08,0.98,-0.04,0.10,-0.18,-0.06,-0.06,0.09,0.29,1012.86
0.171,-0.08,0.98,-0.04,0.10,-0.18,-0.06,-0.07,0.35,0.30,1012.86
0.172,-0.08,0.98,-0.04,0.39,-0.24,-0.16,-0.07,0.35,0.30,1012.86
0.209,-0.08,0.98,-0.04,0.39,-0.24,-0.16,-0.07,0.35,0.30,1012.87
0.211,-0.15,1.01,0.04,0.39,-0.24,-0.16,-0.07,0.35,0.30,1012.87
0.212,-0.15,1.01,0.04,0.39,-0.24,-0.16,-0.05,0.41,0.29,1012.87
0.213,-0.15,1.01,0.04,-0.44,0.03,0.60,-0.05,0.41,0.29,1012.87
0.249,-0.17,0.97,0.06,-0.44,0.03,0.60,-0.05,0.41,0.29,1012.87
0.249,-0.17,0.97,0.06,-0.44,0.03,0.60,0.03,0.26,0.31,1012.87
0.25,-0.17,0.97,0.06,-0.70,-0.38,0.81,0.03,0.26,0.31,1012.87
0.264,-0.17,0.97,0.06,-0.70,-0.38,0.81,0.03,0.26,0.31,1012.88
0.295,-0.21,0.94,0.01,-0.70,-0.38,0.81,0.03,0.26,0.31,1012.88
0.295,-0.21,0.94,0.01,-0.70,-0.38,0.81,0.21,0.09,0.44,1012.88
0.296,-0.21,0.94,0.01,-1.26,-0.61,0.39,0.21,0.09,0.44,1012.88
0.325,-0.21,0.94,0.01,-1.26,-0.61,0.39,0.21,0.09,0.44,1012.88
0.327,0.00,0.99,-0.06,-1.26,-0.61,0.39,0.21,0.09,0.44,1012.88
0.328,0.00,0.99,-0.06,-1.26,-0.61,0.39,0.35,-0.08,0.59,1012.88
0.329,0.00,0.99,-0.06,0.58,-0.12,-0.18,0.35,-0.08,0.59,1012.88
0.367,0.18,1.06,-0.04,0.58,-0.12,-0.18,0.35,-0.08,0.59,1012.88
0.368,0.18,1.06,-0.04,0.58,-0.12,-0.18,0.38,-0.02,0.46,1012.88
0.369,0.18,1.06,-0.04,2.11,0.54,0.18,0.38,-0.02,0.46,1012.88
0.384,0.18,1.06,-0.04,2.11,0.54,0.18,0.38,-0.02,0.46,1012.87
0.407,0.24,1.15,-0.04,2.11,0.54,0.18,0.38,-0.02,0.46,1012.87
0.409,0.24,1.15,-0.04,2.11,0.54,0.18,0.40,0.09,0.12,1012.87
0.409,0.24,1.15,-0.04,2.55,1.42,0.32,0.40,0.09,0.12,1012.87
0.444,0.24,1.15,-0.04,2.55,1.42,0.32,0.40,0.09,0.12,1012.86
0.445,0.19,1.18,-0.04,2.55,1.42,0.32,0.40,0.09,0.12,1012.86
0.446,0.19,1.18,-0.04,2.55,1.42,0.32,0.38,0.00,-0.22,1012.86
0.446,0.19,1.18,-0.04,2.14,1.69,0.46,0.38,0.00,-0.22,1012.86
0.486,0.44,1.43,0.07,2.14,1.69,0.46,0.38,0.00,-0.22,1012.86
0.488,0.44,1.43,0.07,4.72,4.07,1.66,0.38,0.00,-0.22,1012.86
0.489,0.44,1.43,0.07,4.72,4.07,1.66,0.38,0.18,-0.42,1012.86
0.511,0.44,1.43,0.07,4.72,4.07,1.66,0.38,0.18,-0.42,1012.85
0.547,0.47,1.58,0.11,4.72,4.07,1.66,0.38,0.18,-0.42,1012.85
0.549,0.47,1.58,0.11,4.72,4.07,1.66,0.52,1.31,-0.94,1012.85
0.55,0.47,1.58,0.11,5.18,5.52,2.30,0.52,1.31,-0.94,1012.85
0.564,-0.27,1.53,-0.30,5.18,5.52,2.30,0.52,1.31,-0.94,1012.85
0.565,-0.27,1.53,-0.30,5.18,5.52,2.30,1.00,1.81,-1.63,1012.85
0.566,-0.27,1.53,-0.30,5.18,5.52,2.30,1.00,1.81,-1.63,1012.83
0.567,-0.27,1.53,-0.30,-1.44,5.07,-1.33,1.00,1.81,-1.63,1012.83
0.604,-0.41,1.59,-0.34,-1.44,5.07,-1.33,1.00,1.81,-1.63,1012.83
0.606,-0.41,1.59,-0.34,-1.44,5.07,-1.33,1.36,-0.34,-1.93,1012.83
0.607,-0.41,1.59,-0.34,-2.09,5.75,-1.17,1.36,-0.34,-1.93,1012.83
0.628,-0.41,1.59,-0.34,-2.09,5.75,-1.17,1.36,-0.34,-1.93,1012.84
0.644,-0.41,1.59,-0.34,7.25,3.13,1.70,1.36,-0.34,-1.93,1012.84
0.646,0.47,1.30,-0.09,7.25,3.13,1.70,1.36,-0.34,-1.93,1012.84
0.648,0.47,1.30,-0.09,7.25,3.13,1.70,1.29,-0.96,-1.78,1012.84
0.685,0.04,0.80,0.05,7.25,3.13,1.70,1.29,-0.96,-1.78,1012.84
0.688,0.04,0.80,0.05,7.25,3.13,1.70,0.93,0.18,-1.31,1012.84
0.69,0.04,0.80,0.05,3.47,-1.52,3.37,0.93,0.18,-1.31,1012.84
0.692,0.04,0.80,0.05,3.47,-1.52,3.37,0.93,0.18,-1.31,1012.85
0.723,0.20,0.59,0.13,3.47,-1.52,3.37,0.93,0.18,-1.31,1012.85
0.727,0.20,0.59,0.13,3.47,-1.52,3.37,0.40,-0.25,0.13,1012.85
0.727,0.20,0.59,0.13,4.86,-3.47,4.15,0.40,-0.25,0.13,1012.85
0.751,0.20,0.59,0.13,4.86,-3.47,4.15,0.40,-0.25,0.13,1012.86
0.783,0.12,0.36,0.11,4.86,-3.47,4.15,0.40,-0.25,0.13,1012.86
0.785,0.12,0.36,0.11,4.86,-3.47,4.15,-0.34,0.22,1.13,1012.86
0.786,0.12,0.36,0.11,3.60,-5.81,3.83,-0.34,0.22,1.13,1012.86
0.803,-0.07,0.29,-0.06,3.60,-5.81,3.83,-0.34,0.22,1.13,1012.86
0.805,-0.07,0.29,-0.06,3.60,-5.81,3.83,-0.93,0.97,1.76,1012.86
0.806,-0.07,0.29,-0.06,3.60,-5.81,3.83,-0.93,0.97,1.76,1012.87
0.806,-0.07,0.29,-0.06,0.93,-6.58,1.81,-0.93,0.97,1.76,1012.87
0.843,-0.07,0.29,-0.06,-3.33,-7.96,-0.59,-0.93,0.97,1.76,1012.87
0.844,-0.43,0.16,-0.27,-3.33,-7.96,-0.59,-0.93,0.97,1.76,1012.87
0.845,-0.43,0.16,-0.27,-3.33,-7.96,-0.59,-1.25,1.28,1.89,1012.87
0.864,-0.43,0.16,-0.27,-3.33,-7.96,-0.59,-1.25,1.28,1.89,1012.87
0.88,-0.64,0.25,-0.58,-3.33,-7.96,-0.59,-1.25,1.28,1.89,1012.87
0.881,-0.64,0.25,-0.58,-3.33,-7.96,-0.59,-1.02,0.90,1.50,1012.87
0.882,-0.64,0.25,-0.58,-5.92,-7.05,-3.93,-1.02,0.90,1.50,1012.87
0.923,-1.02,1.39,-1.64,-5.92,-7.05,-3.93,-1.02,0.90,1.50,1012.87
0.926,-1.02,1.39,-1.64,-5.92,-7.05,-3.93,0.54,0.60,-0.19,1012.87
0.928,-1.02,1.39,-1.64,-9.45,4.10,-13.84,0.54,0.60,-0.19,1012.87
0.93,-1.02,1.39,-1.64,-9.45,4.10,-13.84,0.54,0.60,-0.19,1012.87
0.963,-1.13,1.80,0.19,-9.45,4.10,-13.84,0.54,0.60,-0.19,1012.87
0.965,-1.13,1.80,0.19,-9.45,4.10,-13.84,1.23,-1.14,-2.95,1012.87
0.967,-1.13,1.80,0.19,-9.21,8.21,4.38,1.23,-1.14,-2.95,1012.87
0.983,-1.13,1.80,0.19,-9.21,8.21,4.38,1.23,-1.14,-2.95,1012.87
0.999,1.08,-0.61,-0.71,-9.21,8.21,4.38,1.23,-1.14,-2.95,1012.87
1.0,1.08,-0.61,-0.71,-9.21,8.21,4.38,0.83,-0.66,0.73,1012.87
1.001,1.08,-0.61,-0.71,12.10,-15.05,-4.15,0.83,-0.66,0.73,1012.87
1.039,-1.72,1.44,-0.52,12.10,-15.05,-4.15,0.83,-0.66,0.73,1012.87
1.042,-1.72,1.44,-0.52,12.10,-15.05,-4.15,0.21,1.94,-2.33,1012.87
1.043,-1.72,1.44,-0.52,-14.46,5.11,-1.98,0.21,1.94,-2.33,1012.87
1.045,-1.72,1.44,-0.52,-14.46,5.11,-1.98,0.21,1.94,-2.33,1012.88
1.079,-0.55,1.44,-0.40,-14.46,5.11,-1.98,0.21,1.94,-2.33,1012.88
1.082,-0.55,1.44,-0.40,-14.46,5.11,-1.98,0.19,0.01,-0.34,1012.88
1.084,-0.55,1.44,-0.40,-2.91,5.11,-0.78,0.19,0.01,-0.34,1012.88
1.105,-0.55,1.44,-0.40,-2.91,5.11,-0.78,0.19,0.01,-0.34,1012.88
1.133,-0.13,0.72,-0.34,-2.91,5.11,-0.78,0.19,0.01,-0.34,1012.88
1.136,-0.13,0.72,-0.34,-2.91,5.11,-0.78,0.16,-0.43,0.58,1012.88
1.137,-0.13,0.72,-0.34,1.06,-2.00,-0.16,0.16,-0.43,0.58,1012.88
1.179,-0.56,1.05,-0.39,1.06,-2.00,-0.16,0.16,-0.43,0.58,1012.88
1.182,-0.56,1.05,-0.39,1.06,-2.00,-0.16,-0.04,0.37,0.31,1012.88
1.184,-0.56,1.05,-0.39,-3.27,1.14,-0.62,-0.04,0.37,0.31,1012.88
1.186,-0.56,1.05,-0.39,-3.27,1.14,-0.62,-0.04,0.37,0.31,1012.87
1.198,-0.22,0.94,-0.41,-3.27,1.14,-0.62,-0.04,0.37,0.31,1012.87
1.199,-0.22,0.94,-0.41,-3.27,1.14,-0.62,-0.07,-0.40,0.77,1012.87
1.2,-0.22,0.94,-0.41,-0.17,-0.01,-0.83,-0.07,-0.40,0.77,1012.87
1.232,-0.22,0.94,-0.41,-0.17,-0.01,-0.83,-0.07,-0.40,0.77,1012.86
1.237,-0.07,0.93,-0.38,-0.17,-0.01,-0.83,-0.07,-0.40,0.77,1012.86
1.238,-0.07,0.93,-0.38,-0.17,-0.01,-0.83,-0.14,-0.63,0.85,1012.86
1.24,-0.07,0.93,-0.38,1.11,-0.19,-0.62,-0.14,-0.63,0.85,1012.86
1.276,-0.11,0.87,-0.35,1.11,-0.19,-0.62,-0.14,-0.63,0.85,1012.86
1.279,-0.11,0.87,-0.35,1.11,-0.19,-0.62,-0.29,-0.21,0.66,1012.86
1.279,-0.11,0.87,-0.35,0.43,-0.81,-0.45,-0.29,-0.21,0.66,1012.86
1.283,-0.11,0.87,-0.35,0.43,-0.81,-0.45,-0.29,-0.21,0.66,1012.87
1.324,-0.08,0.92,-0.20,0.43,-0.81,-0.45,-0.29,-0.21,0.66,1012.87
1.325,-0.08,0.92,-0.20,0.43,-0.81,-0.45,-0.29,-0.37,0.62,1012.87
1.326,-0.08,0.92,-0.20,0.57,-0.34,0.89,-0.29,-0.37,0.62,1012.87
1.361,-0.08,0.92,-0.20,0.57,-0.34,0.89,-0.29,-0.37,0.62,1012.86
1.366,0.07,0.90,-0.17,0.57,-0.34,0.89,-0.29,-0.37,0.62,1012.86
1.367,0.07,0.90,-0.17,0.57,-0.34,0.89,-0.13,-0.44,0.46,1012.86
1.368,0.07,0.90,-0.17,1.90,-0.57,1.03,-0.13,-0.44,0.46,1012.86
1.395,0.15,0.87,-0.25,1.90,-0.57,1.03,-0.13,-0.44,0.46,1012.86
1.397,0.15,0.87,-0.25,1.90,-0.57,1.03,-0.02,-0.21,0.11,1012.86
1.398,0.15,0.87,-0.25,2.61,-0.89,0.29,-0.02,-0.21,0.11,1012.86
1.403,0.15,0.87,-0.25,2.61,-0.89,0.29,-0.02,-0.21,0.11,1012.85
1.435,0.08,1.02,-0.28,2.61,-0.89,0.29,-0.02,-0.21,0.11,1012.85
1.436,0.08,1.02,-0.28,2.61,-0.89,0.29,0.05,0.22,-0.20,1012.85
1.437,0.08,1.02,-0.28,1.95,0.61,0.00,0.05,0.22,-0.20,1012.85
1.505,0.08,1.02,-0.28,1.95,0.61,0.00,0.05,0.22,-0.20,1012.85
1.506,-0.25,1.26,-0.32,1.95,0.61,0.00,0.05,0.22,-0.20,1012.85
1.507,-0.25,1.26,-0.32,1.95,0.61,0.00,-0.02,0.15,-0.38,1012.85
1.508,-0.25,1.26,-0.32,-1.11,2.93,-0.41,-0.02,0.15,-0.38,1012.85
1.513,-0.12,1.38,-0.33,-1.11,2.93,-0.41,-0.02,0.15,-0.38,1012.85
1.515,-0.12,1.38,-0.33,-1.11,2.93,-0.41,-0.10,-0.84,-0.21,1012.85
1.516,-0.12,1.38,-0.33,0.24,4.02,-0.55,-0.10,-0.84,-0.21,1012.85
1.522,-0.12,1.38,-0.33,0.24,4.02,-0.55,-0.10,-0.84,-0.21,1012.85
1.552,-0.21,1.59,-0.13,0.24,4.02,-0.55,-0.10,-0.84,-0.21,1012.85
1.554,-0.21,1.59,-0.13,0.24,4.02,-0.55,-0.24,-1.34,-0.10,1012.85
1.554,-0.21,1.59,-0.13,-0.47,5.93,1.18,-0.24,-1.34,-0.10,1012.85
1.582,-0.21,1.59,-0.13,-0.47,5.93,1.18,-0.24,-1.34,-0.10,1012.85
1.595,0.85,1.67,0.16,-0.47,5.93,1.18,-0.24,-1.34,-0.10,1012.85
1.598,0.85,1.67,0.16,-0.47,5.93,1.18,-0.48,-0.47,-0.05,1012.85
1.6,0.85,1.67,0.16,9.89,6.58,3.76,-0.48,-0.47,-0.05,1012.85
1.639,0.59,1.29,-0.45,9.89,6.58,3.76,-0.48,-0.47,-0.05,1012.85
1.645,0.59,1.29,-0.45,9.89,6.58,3.76,0.20,1.98,-1.68,1012.85
1.646,0.59,1.29,-0.45,7.63,2.99,-1.93,0.20,1.98,-1.68,1012.85
1.647,0.59,1.29,-0.45,7.63,2.99,-1.93,0.20,1.98,-1.68,1012.84
1.671,-1.21,1.96,-0.90,7.63,2.99,-1.93,0.20,1.98,-1.68,1012.84
1.673,-1.21,1.96,-0.90,7.63,2.99,-1.93,1.74,1.61,-3.73,1012.84
1.673,-1.21,1.96,-0.90,-8.62,9.95,-5.45,1.74,1.61,-3.73,1012.84
1.703,-1.21,1.96,-0.90,-8.62,9.95,-5.45,1.74,1.61,-3.73,1012.84
1.717,-1.21,1.96,-0.90,-2.92,6.87,-2.18,1.74,1.61,-3.73,1012.84
1.719,-0.76,1.58,-0.62,-2.92,6.87,-2.18,1.74,1.61,-3.73,1012.84
1.719,-0.76,1.58,-0.62,-2.92,6.87,-2.18,2.11,-1.59,-2.95,1012.84
1.751,-0.07,1.17,-0.38,-2.92,6.87,-2.18,2.11,-1.59,-2.95,1012.84
1.752,-0.07,1.17,-0.38,-2.92,6.87,-2.18,1.74,-2.77,-2.42,1012.84
1.753,-0.07,1.17,-0.38,5.02,3.53,0.17,1.74,-2.77,-2.42,1012.84
1.765,-0.07,1.17,-0.38,5.02,3.53,0.17,1.74,-2.77,-2.42,1012.84
1.79,-0.01,0.78,-0.26,5.02,3.53,0.17,1.74,-2.77,-2.42,1012.84
1.793,-0.01,0.78,-0.26,5.02,3.53,0.17,1.19,-0.56,-2.28,1012.84
1.794,-0.01,0.78,-0.26,6.29,0.44,1.58,1.19,-0.56,-2.28,1012.84
1.823,-0.01,0.78,-0.26,6.29,0.44,1.58,1.19,-0.56,-2.28,1012.83
1.846,-0.25,0.36,-0.17,6.29,0.44,1.58,1.19,-0.56,-2.28,1012.83
1.848,-0.25,0.36,-0.17,6.29,0.44,1.58,0.66,1.18,-1.73,1012.83
1.848,-0.25,0.36,-0.17,4.12,-3.11,2.83,0.66,1.18,-1.73,1012.83
1.885,-0.13,0.17,-0.14,4.12,-3.11,2.83,0.66,1.18,-1.73,1012.83
1.887,-0.13,0.17,-0.14,4.12,-3.11,2.83,0.25,1.08,-0.42,1012.83
1.888,-0.13,0.17,-0.14,5.12,-4.71,3.48,0.25,1.08,-0.42,1012.83
1.889,-0.13,0.17,-0.14,5.12,-4.71,3.48,0.25,1.08,-0.42,1012.82
1.917,-0.13,0.17,-0.14,4.90,-5.63,4.51,0.25,1.08,-0.42,1012.82
1.919,-0.10,0.09,-0.04,4.90,-5.63,4.51,0.25,1.08,-0.42,1012.82
1.92,-0.10,0.09,-0.04,4.90,-5.63,4.51,-0.25,1.00,0.71,1012.82
1.942,-0.10,0.09,-0.04,4.90,-5.63,4.51,-0.25,1.00,0.71,1012.82
1.947,-0.20,0.05,-0.02,4.90,-5.63,4.51,-0.25,1.00,0.71,1012.82
1.948,-0.20,0.05,-0.02,4.90,-5.63,4.51,-0.67,1.05,1.58,1012.82
1.948,-0.20,0.05,-0.02,3.31,-6.38,4.71,-0.67,1.05,1.58,1012.82
1.988,-0.34,0.10,-0.11,3.31,-6.38,4.71,-0.67,1.05,1.58,1012.82
1.992,-0.34,0.10,-0.11,3.31,-6.38,4.71,-1.00,1.05,2.21,1012.82
1.994,-0.34,0.10,-0.11,1.02,-6.37,3.64,-1.00,1.05,2.21,1012.82
2.003,-0.34,0.10,-0.11,1.02,-6.37,3.64,-1.00,1.05,2.21,1012.82
2.029,-0.62,0.17,-0.36,1.02,-6.37,3.64,-1.00,1.05,2.21,1012.82
2.035,-0.62,0.17,-0.36,1.02,-6.37,3.64,-1.28,0.73,2.31,1012.82
2.037,-0.62,0.17,-0.36,-2.52,-6.18,0.96,-1.28,0.73,2.31,1012.82
2.061,-0.62,0.17,-0.36,-2.52,-6.18,0.96,-1.28,0.73,2.31,1012.81
2.066,-0.83,0.23,-0.53,-2.52,-6.18,0.96,-1.28,0.73,2.31,1012.81
2.067,-0.83,0.23,-0.53,-2.52,-6.18,0.96,-1.20,0.09,1.97,1012.81
2.067,-0.83,0.23,-0.53,-5.11,-5.94,-1.11,-1.20,0.09,1.97,1012.81
2.106,-0.86,0.12,-0.54,-5.11,-5.94,-1.11,-1.20,0.09,1.97,1012.81
2.109,-0.86,0.12,-0.54,-5.11,-5.94,-1.11,-0.75,0.31,1.07,1012.81
2.11,-0.86,0.12,-0.54,-5.72,-7.21,-1.39,-0.75,0.31,1.07,1012.81
2.128,-0.86,0.12,-0.54,-5.72,-7.21,-1.39,-0.75,0.31,1.07,1012.80
2.167,-1.61,0.66,-1.34,-5.72,-7.21,-1.39,-0.75,0.31,1.07,1012.80
2.169,-1.61,0.66,-1.34,-12.94,-1.76,-8.86,-0.75,0.31,1.07,1012.80
2.172,-1.61,0.66,-1.34,-12.94,-1.76,-8.86,0.24,1.05,-0.21,1012.80
2.183,-1.61,0.66,-1.34,-12.94,-1.76,-8.86,0.24,1.05,-0.21,1012.80
2.186,-0.60,2.46,-0.49,-12.94,-1.76,-8.86,0.24,1.05,-0.21,1012.80
2.188,-0.60,2.46,-0.49,-12.94,-1.76,-8.86,0.53,-0.91,-0.84,1012.80
2.189,-0.60,2.46,-0.49,-2.54,15.76,-0.51,0.53,-0.91,-0.84,1012.80
2.23,0.75,0.05,-0.67,-2.54,15.76,-0.51,0.53,-0.91,-0.84,1012.80
2.233,0.75,0.05,-0.67,-2.54,15.76,-0.51,-0.26,0.67,0.74,1012.80
2.235,0.75,0.05,-0.67,10.13,-7.83,-2.18,-0.26,0.67,0.74,1012.80
2.28,0.75,0.05,-0.67,10.13,-7.83,-2.18,-0.26,0.67,0.74,1012.79
2.282,-1.56,0.93,-0.50,10.13,-7.83,-2.18,-0.26,0.67,0.74,1012.79
2.283,-1.56,0.93,-0.50,-12.20,0.78,-0.51,-0.26,0.67,0.74,1012.79
2.286,-1.56,0.93,-0.50,-12.20,0.78,-0.51,-0.41,1.46,-0.93,1012.79
2.303,-1.56,0.93,-0.50,-12.20,0.78,-0.51,-0.41,1.46,-0.93,1012.79
2.305,-0.04,1.21,-0.58,-12.20,0.78,-0.51,-0.41,1.46,-0.93,1012.79
2.306,-0.04,1.21,-0.58,-12.20,0.78,-0.51,-0.17,-0.69,0.69,1012.79
2.306,-0.04,1.21,-0.58,2.51,3.33,-1.43,-0.17,-0.69,0.69,1012.79
2.345,-0.49,0.84,-0.46,2.51,3.33,-1.43,-0.17,-0.69,0.69,1012.79
2.346,-0.49,0.84,-0.46,2.51,3.33,-1.43,-0.46,0.28,0.67,1012.79
2.347,-0.49,0.84,-0.46,-2.18,-0.36,-0.32,-0.46,0.28,0.67,1012.79
2.38,-0.49,0.84,-0.46,-2.18,-0.36,-0.32,-0.46,0.28,0.67,1012.78
2.383,-0.47,0.98,-0.41,-2.18,-0.36,-0.32,-0.46,0.28,0.67,1012.78
2.385,-0.47,0.98,-0.41,-2.18,-0.36,-0.32,-0.55,-0.09,0.84,1012.78
2.387,-0.47,0.98,-0.41,-2.18,0.79,-0.08,-0.55,-0.09,0.84,1012.78
2.43,-0.08,0.95,-0.32,-2.18,0.79,-0.08,-0.55,-0.09,0.84,1012.78
2.434,-0.08,0.95,-0.32,-2.18,0.79,-0.08,-0.55,-0.66,1.06,1012.78
2.436,-0.08,0.95,-0.32,1.33,0.30,0.51,-0.55,-0.66,1.06,1012.78
2.437,-0.08,0.95,-0.32,1.33,0.30,0.51,-0.55,-0.66,1.06,1012.78
2.462,-0.08,0.87,-0.28,1.33,0.30,0.51,-0.55,-0.66,1.06,1012.78
2.465,-0.08,0.87,-0.28,1.33,0.30,0.51,-0.51,-0.51,0.95,1012.78
2.466,-0.08,0.87,-0.28,1.05,-0.60,0.69,-0.51,-0.51,0.95,1012.78
2.481,-0.08,0.87,-0.28,1.05,-0.60,0.69,-0.51,-0.51,0.95,1012.78
2.5,0.07,0.80,-0.24,1.05,-0.60,0.69,-0.51,-0.51,0.95,1012.78
2.501,0.07,0.80,-0.24,1.05,-0.60,0.69,-0.38,-0.50,0.70,1012.78
2.502,0.07,0.80,-0.24,2.32,-1.35,0.95,-0.38,-0.50,0.70,1012.78
2.553,0.16,0.84,-0.19,2.32,-1.35,0.95,-0.38,-0.50,0.70,1012.78
2.557,0.16,0.84,-0.19,2.32,-1.35,0.95,-0.16,-0.31,0.35,1012.78
2.559,0.16,0.84,-0.19,2.32,-1.35,0.95,-0.16,-0.31,0.35,1012.78
2.561,0.16,0.84,-0.19,3.06,-0.97,1.27,-0.16,-0.31,0.35,1012.78
2.58,0.11,0.90,-0.21,3.06,-0.97,1.27,-0.16,-0.31,0.35,1012.78
2.581,0.11,0.90,-0.21,3.06,-0.97,1.27,0.08,0.04,-0.07,1012.78
2.582,0.11,0.90,-0.21,2.56,-0.41,1.13,0.08,0.04,-0.07,1012.78
2.601,0.11,0.90,-0.21,2.56,-0.41,1.13,0.08,0.04,-0.07,1012.79
2.619,-0.11,1.03,-0.30,2.56,-0.41,1.13,0.08,0.04,-0.07,1012.79
2.621,-0.11,1.03,-0.30,2.56,-0.41,1.13,0.23,0.27,-0.39,1012.79
2.621,-0.11,1.03,-0.30,0.44,0.93,0.35,0.23,0.27,-0.39,1012.79
2.66,-0.26,1.13,-0.40,0.44,0.93,0.35,0.23,0.27,-0.39,1012.79
2.664,-0.26,1.13,-0.40,0.44,0.93,0.35,0.21,0.01,-0.45,1012.79
2.664,-0.26,1.13,-0.40,-0.84,1.87,-0.51,0.21,0.01,-0.45,1012.79
2.665,-0.26,1.13,-0.40,-0.84,1.87,-0.51,0.21,0.01,-0.45,1012.79
2.698,-0.10,1.31,-0.52,-0.84,1.87,-0.51,0.21,0.01,-0.45,1012.79
2.7,-0.10,1.31,-0.52,-0.84,1.87,-0.51,0.02,-0.34,-0.30,1012.79
2.701,-0.10,1.31,-0.52,0.84,3.60,-1.71,0.02,-0.34,-0.30,1012.79
2.722,-0.10,1.31,-0.52,0.84,3.60,-1.71,0.02,-0.34,-0.30,1012.80
2.745,-0.38,1.46,-0.38,0.84,3.60,-1.71,0.02,-0.34,-0.30,1012.80
2.747,-0.38,1.46,-0.38,0.84,3.60,-1.71,-0.31,-0.42,-0.18,1012.80
2.749,-0.38,1.46,-0.38,-1.75,5.01,-0.46,-0.31,-0.42,-0.18,1012.80
2.777,-0.22,1.73,0.03,-1.75,5.01,-0.46,-0.31,-0.42,-0.18,1012.80
2.778,-0.22,1.73,0.03,-1.75,5.01,-0.46,-0.60,-0.56,0.06,1012.80
2.779,-0.22,1.73,0.03,-1.75,5.01,-0.46,-0.60,-0.56,0.06,1012.80
2.779,-0.22,1.73,0.03,-0.13,7.42,3.18,-0.60,-0.56,0.06,1012.80
2.828,0.82,1.39,0.14,-0.13,7.42,3.18,-0.60,-0.56,0.06,1012.80
2.831,0.82,1.39,0.14,-0.13,7.42,3.18,-0.67,0.09,0.05,1012.80
2.833,0.82,1.39,0.14,9.94,3.93,3.95,-0.67,0.09,0.05,1012.80
2.841,0.82,1.39,0.14,9.94,3.93,3.95,-0.67,0.09,0.05,1012.80
2.885,0.39,1.48,-0.60,9.94,3.93,3.95,-0.67,0.09,0.05,1012.80
2.888,0.39,1.48,-0.60,9.94,3.93,3.95,0.47,1.57,-1.73,1012.80
2.89,0.39,1.48,-0.60,6.09,4.94,-2.88,0.47,1.57,-1.73,1012.80
2.897,0.39,1.48,-0.60,-7.68,9.12,-4.27,0.47,1.57,-1.73,1012.80
2.899,-1.14,1.85,-0.83,-7.68,9.12,-4.27,0.47,1.57,-1.73,1012.80
2.9,-1.14,1.85,-0.83,-7.68,9.12,-4.27,1.85,1.06,-3.53,1012.80
2.901,-1.14,1.85,-0.83,-7.68,9.12,-4.27,1.85,1.06,-3.53,1012.80
2.949,-0.69,1.49,-0.65,-7.68,9.12,-4.27,1.85,1.06,-3.53,1012.80
2.953,-0.69,1.49,-0.65,-7.68,9.12,-4.27,2.12,-2.32,-2.60,1012.80
2.955,-0.69,1.49,-0.65,-1.96,6.23,-2.18,2.12,-2.32,-2.60,1012.80
2.982,-0.69,1.49,-0.65,-1.96,6.23,-2.18,2.12,-2.32,-2.60,1012.79
2.984,0.00,1.19,-0.39,-1.96,6.23,-2.18,2.12,-2.32,-2.60,1012.79
2.985,0.00,1.19,-0.39,-1.96,6.23,-2.18,1.54,-3.37,-2.15,1012.79
2.986,0.00,1.19,-0.39,5.96,3.93,0.15,1.54,-3.37,-2.15,1012.79
3.02,-0.06,0.70,-0.11,5.96,3.93,0.15,1.54,-3.37,-2.15,1012.79
3.022,-0.06,0.70,-0.11,5.96,3.93,0.15,0.89,-1.26,-2.14,1012.79
3.022,-0.06,0.70,-0.11,6.11,-0.21,2.73,0.89,-1.26,-2.14,1012.79
3.023,-0.06,0.70,-0.11,6.11,-0.21,2.73,0.89,-1.26,-2.14,1012.78
3.054,-0.05,0.33,-0.11,6.11,-0.21,2.73,0.89,-1.26,-2.14,1012.78
3.056,-0.05,0.33,-0.11,6.36,-3.36,3.07,0.89,-1.26,-2.14,1012.78
3.056,-0.05,0.33,-0.11,6.36,-3.36,3.07,0.44,0.70,-1.32,1012.78
3.081,-0.05,0.33,-0.11,6.36,-3.36,3.07,0.44,0.70,-1.32,1012.77
3.095,-0.05,0.33,-0.11,6.38,-6.36,3.54,0.44,0.70,-1.32,1012.77
3.097,-0.01,0.01,-0.09,6.38,-6.36,3.54,0.44,0.70,-1.32,1012.77
3.098,-0.01,0.01,-0.09,6.38,-6.36,3.54,-0.01,1.52,-0.07,1012.77
3.149,-0.01,0.01,-0.09,3.74,-7.71,3.91,-0.01,1.52,-0.07,1012.77
3.153,-0.21,-0.10,-0.07,3.74,-7.71,3.91,-0.01,1.52,-0.07,1012.77
3.155,-0.21,-0.10,-0.07,3.74,-7.71,3.91,-0.49,1.43,1.20,1012.77
3.157,-0.21,-0.10,-0.07,3.74,-7.71,3.91,-0.49,1.43,1.20,1012.75
3.179,-0.23,-0.13,-0.13,3.74,-7.71,3.91,-0.49,1.43,1.20,1012.75
3.18,-0.23,-0.13,-0.13,3.74,-7.71,3.91,-0.85,1.02,2.29,1012.75
3.181,-0.23,-0.13,-0.13,2.74,-8.48,3.22,-0.85,1.02,2.29,1012.75
3.2,-0.23,-0.13,-0.13,2.74,-8.48,3.22,-0.85,1.02,2.29,1012.75
3.213,-0.23,-0.13,-0.13,-0.10,-9.22,2.86,-0.85,1.02,2.29,1012.75
3.215,-0.41,-0.15,-0.15,-0.10,-9.22,2.86,-0.85,1.02,2.29,1012.75
3.216,-0.41,-0.15,-0.15,-0.10,-9.22,2.86,-1.06,1.04,2.83,1012.75
3.252,-0.44,0.10,-0.79,-0.10,-9.22,2.86,-1.06,1.04,2.83,1012.75
3.254,-0.44,0.10,-0.79,-0.10,-9.22,2.86,-1.02,2.04,2.41,1012.75
3.256,-0.44,0.10,-0.79,-1.49,-7.10,-3.36,-1.02,2.04,2.41,1012.75
3.283,-0.44,0.10,-0.79,-1.49,-7.10,-3.36,-1.02,2.04,2.41,1012.75
3.291,-1.40,0.03,-1.47,-1.49,-7.10,-3.36,-1.02,2.04,2.41,1012.75
3.294,-1.40,0.03,-1.47,-1.49,-7.10,-3.36,-0.99,2.79,0.90,1012.75
3.296,-1.40,0.03,-1.47,-11.48,-7.97,-9.97,-0.99,2.79,0.90,1012.75
3.324,-1.40,0.03,-1.47,-11.48,-7.97,-9.97,-0.99,2.79,0.90,1012.76
3.341,-2.35,0.59,-0.98,-11.48,-7.97,-9.97,-0.99,2.79,0.90,1012.76
3.343,-2.35,0.59,-0.98,-11.48,-7.97,-9.97,0.39,-0.15,-0.48,1012.76
3.344,-2.35,0.59,-0.98,-20.23,-2.28,-4.95,0.39,-0.15,-0.48,1012.76
3.37,0.83,2.63,-0.43,-20.23,-2.28,-4.95,0.39,-0.15,-0.48,1012.76
3.373,0.83,2.63,-0.43,-20.23,-2.28,-4.95,0.52,-4.01,0.86,1012.76
3.375,0.83,2.63,-0.43,11.16,17.42,0.17,0.52,-4.01,0.86,1012.76
3.381,0.83,2.63,-0.43,11.16,17.42,0.17,0.52,-4.01,0.86,1012.75
3.412,0.38,0.31,-0.53,11.16,17.42,0.17,0.52,-4.01,0.86,1012.75
3.415,0.38,0.31,-0.53,11.16,17.42,0.17,-0.80,1.70,-0.23,1012.75
3.417,0.38,0.31,-0.53,6.45,-5.37,-0.93,-0.80,1.70,-0.23,1012.75
3.442,0.38,0.31,-0.53,6.45,-5.37,-0.93,-0.80,1.70,-0.23,1012.76
3.449,-1.74,0.62,-0.46,6.45,-5.37,-0.93,-0.80,1.70,-0.23,1012.76
3.45,-1.74,0.62,-0.46,6.45,-5.37,-0.93,-0.18,1.57,-0.64,1012.76
3.45,-1.74,0.62,-0.46,-14.14,-2.31,-0.12,-0.18,1.57,-0.64,1012.76
3.489,-0.18,1.40,-0.68,-14.14,-2.31,-0.12,-0.18,1.57,-0.64,1012.76
3.493,-0.18,1.40,-0.68,-14.14,-2.31,-0.12,-0.13,-1.53,0.82,1012.76
3.495,-0.18,1.40,-0.68,1.11,5.13,-2.44,-0.13,-1.53,0.82,1012.76
3.5,-0.18,1.40,-0.68,1.11,5.13,-2.44,-0.13,-1.53,0.82,1012.76
3.546,0.10,0.76,-0.43,1.11,5.13,-2.44,-0.13,-1.53,0.82,1012.76
3.55,0.10,0.76,-0.43,1.11,5.13,-2.44,-0.57,0.11,0.85,1012.76
3.552,0.10,0.76,-0.43,3.48,-1.22,-0.18,-0.57,0.11,0.85,1012.76
3.587,0.10,0.76,-0.43,3.48,-1.22,-0.18,-0.57,0.11,0.85,1012.76
3.59,-0.70,1.00,-0.50,3.48,-1.22,-0.18,-0.57,0.11,0.85,1012.76
3.591,-0.70,1.00,-0.50,-4.58,0.94,-1.00,-0.57,0.11,0.85,1012.76
3.592,-0.70,1.00,-0.50,-4.58,0.94,-1.00,-0.61,0.70,0.46,1012.76
3.606,0.01,0.85,-0.35,-4.58,0.94,-1.00,-0.61,0.70,0.46,1012.76
3.607,0.01,0.85,-0.35,-4.58,0.94,-1.00,-0.70,-0.76,0.92,1012.76
3.608,0.01,0.85,-0.35,2.16,-0.73,0.21,-0.70,-0.76,0.92,1012.76
3.62,0.01,0.85,-0.35,2.16,-0.73,0.21,-0.70,-0.76,0.92,1012.76
3.648,0.01,0.85,-0.35,3.03,-0.49,1.29,-0.70,-0.76,0.92,1012.76
3.651,0.12,0.89,-0.21,3.03,-0.49,1.29,-0.70,-0.76,0.92,1012.76
3.652,0.12,0.89,-0.21,3.03,-0.49,1.29,-0.64,-0.32,0.70,1012.76
3.68,0.12,0.89,-0.21,3.03,-0.49,1.29,-0.64,-0.32,0.70,1012.77
3.687,-0.09,0.82,-0.14,3.03,-0.49,1.29,-0.64,-0.32,0.70,1012.77
3.689,-0.09,0.82,-0.14,3.03,-0.49,1.29,-0.46,0.11,0.32,1012.77
3.691,-0.09,0.82,-0.14,0.82,-1.20,1.72,-0.46,0.11,0.32,1012.77
3.734,0.08,0.96,-0.18,0.82,-1.20,1.72,-0.46,0.11,0.32,1012.77
3.737,0.08,0.96,-0.18,0.82,-1.20,1.72,-0.23,-0.09,0.10,1012.77
3.739,0.08,0.96,-0.18,2.43,0.10,1.21,-0.23,-0.09,0.10,1012.77
3.744,0.08,0.96,-0.18,2.43,0.10,1.21,-0.23,-0.09,0.10,1012.77
3.764,0.05,1.15,-0.29,2.43,0.10,1.21,-0.23,-0.09,0.10,1012.77
3.766,0.05,1.15,-0.29,2.43,0.10,1.21,-0.12,0.27,-0.16,1012.77
3.767,0.05,1.15,-0.29,2.12,1.96,0.19,-0.12,0.27,-0.16,1012.77
3.799,0.05,1.15,-0.29,2.12,1.96,0.19,-0.12,0.27,-0.16,1012.77
3.805,-0.10,1.22,-0.45,2.12,1.96,0.19,-0.12,0.27,-0.16,1012.77
3.805,-0.10,1.22,-0.45,2.12,1.96,0.19,-0.12,-0.09,-0.32,1012.77
3.805,-0.10,1.22,-0.45,0.70,2.62,-1.43,-0.12,-0.09,-0.32,1012.77
3.845,-0.33,1.35,-0.32,0.70,2.62,-1.43,-0.12,-0.09,-0.32,1012.77
3.847,-0.33,1.35,-0.32,0.70,2.62,-1.43,-0.25,-0.34,-0.24,1012.77
3.848,-0.33,1.35,-0.32,-1.39,3.85,-0.28,-0.25,-0.34,-0.24,1012.77
3.875,-0.33,1.35,-0.32,-1.39,3.85,-0.28,-0.25,-0.34,-0.24,1012.77
3.885,-0.33,1.35,-0.32,0.97,7.34,2.77,-0.25,-0.34,-0.24,1012.77
3.888,-0.10,1.73,0.01,0.97,7.34,2.77,-0.25,-0.34,-0.24,1012.77
3.889,-0.10,1.73,0.01,0.97,7.34,2.77,-0.29,-0.83,-0.06,1012.77
3.922,-0.10,1.73,0.01,0.97,7.34,2.77,-0.29,-0.83,-0.06,1012.77
3.925,-0.10,1.73,0.01,9.12,4.78,4.12,-0.29,-0.83,-0.06,1012.77
3.956,0.73,1.47,0.17,9.12,4.78,4.12,-0.29,-0.83,-0.06,1012.77
3.957,0.73,1.47,0.17,9.12,4.78,4.12,-0.24,0.07,-0.37,1012.77
3.965,-0.03,1.55,-0.73,9.12,4.78,4.12,-0.24,0.07,-0.37,1012.77
3.967,-0.03,1.55,-0.73,9.12,4.78,4.12,0.73,1.66,-2.15,1012.77
3.968,-0.03,1.55,-0.73,2.25,5.71,-4.13,0.73,1.66,-2.15,1012.77
3.979,-0.03,1.55,-0.73,2.25,5.71,-4.13,0.73,1.66,-2.15,1012.76
4.002,-1.22,1.92,-0.71,2.25,5.71,-4.13,0.73,1.66,-2.15,1012.76
4.005,-1.22,1.92,-0.71,2.25,5.71,-4.13,1.91,-0.23,-3.52,1012.76
4.007,-1.22,1.92,-0.71,-7.94,9.85,-3.26,1.91,-0.23,-3.52,1012.76
4.047,-1.22,1.92,-0.71,-7.94,9.85,-3.26,1.91,-0.23,-3.52,1012.76
4.048,-0.27,1.41,-0.52,-7.94,9.85,-3.26,1.91,-0.23,-3.52,1012.76
4.049,-0.27,1.41,-0.52,-7.94,9.85,-3.26,2.07,-2.79,-2.59,1012.76
4.049,-0.27,1.41,-0.52,2.58,5.55,-1.20,2.07,-2.79,-2.59,1012.76
4.081,-0.23,1.05,-0.33,2.58,5.55,-1.20,2.07,-2.79,-2.59,1012.76
4.083,-0.23,1.05,-0.33,2.58,5.55,-1.20,1.55,-1.72,-2.48,1012.76
4.085,-0.23,1.05,-0.33,3.94,2.76,0.75,1.55,-1.72,-2.48,1012.76
4.099,-0.23,1.05,-0.33,3.94,2.76,0.75,1.55,-1.72,-2.48,1012.74
4.122,-0.31,0.64,-0.27,3.94,2.76,0.75,1.55,-1.72,-2.48,1012.74
4.125,-0.31,0.64,-0.27,3.94,2.76,0.75,1.11,0.13,-2.04,1012.74
4.127,-0.31,0.64,-0.27,3.60,-0.51,1.67,1.11,0.13,-2.04,1012.74
4.16,-0.19,0.37,-0.20,3.60,-0.51,1.67,1.11,0.13,-2.04,1012.74
4.161,-0.19,0.37,-0.20,3.60,-0.51,1.67,0.67,0.65,-0.88,1012.74
4.162,-0.19,0.37,-0.20,4.89,-2.75,2.62,0.67,0.65,-0.88,1012.74
4.163,-0.19,0.37,-0.20,4.89,-2.75,2.62,0.67,0.65,-0.88,1012.75
4.2,-0.25,0.27,-0.05,4.89,-2.75,2.62,0.67,0.65,-0.88,1012.75
4.201,-0.25,0.27,-0.05,4.89,-2.75,2.62,0.04,0.31,0.18,1012.75
4.202,-0.25,0.27,-0.05,4.13,-3.74,4.08,0.04,0.31,0.18,1012.75
4.22,-0.25,0.27,-0.05,4.13,-3.74,4.08,0.04,0.31,0.18,1012.76
4.253,-0.12,-0.01,0.06,4.13,-3.74,4.08,0.04,0.31,0.18,1012.76
4.257,-0.12,-0.01,0.06,4.13,-3.74,4.08,-0.46,0.12,1.26,1012.76
4.259,-0.12,-0.01,0.06,4.98,-6.73,5.01,-0.46,0.12,1.26,1012.76
4.287,0.03,-0.08,-0.02,4.98,-6.73,5.01,-0.46,0.12,1.26,1012.76
4.29,0.03,-0.08,-0.02,4.98,-6.73,5.01,-0.64,1.07,2.10,1012.76
4.29,0.03,-0.08,-0.02,5.51,-7.93,4.25,-0.64,1.07,2.10,1012.76
4.291,0.03,-0.08,-0.02,5.51,-7.93,4.25,-0.64,1.07,2.10,1012.74
4.319,-0.38,0.12,-0.05,5.51,-7.93,4.25,-0.64,1.07,2.10,1012.74
4.32,-0.38,0.12,-0.05,5.51,-7.93,4.25,-0.85,2.15,2.39,1012.74
4.321,-0.38,0.12,-0.05,0.42,-6.42,4.05,-0.85,2.15,2.39,1012.74
4.354,-0.38,0.12,-0.05,0.42,-6.42,4.05,-0.85,2.15,2.39,1012.72
4.359,-0.38,0.12,-0.05,-2.43,-5.33,-0.20,-0.85,2.15,2.39,1012.72
4.361,-0.56,0.27,-0.48,-2.43,-5.33,-0.20,-0.85,2.15,2.39,1012.72
4.363,-0.56,0.27,-0.48,-2.43,-5.33,-0.20,-1.06,2.48,2.18,1012.72
4.4,-1.24,0.14,-0.73,-2.43,-5.33,-0.20,-1.06,2.48,2.18,1012.72
4.404,-1.24,0.14,-0.73,-2.43,-5.33,-0.20,-1.37,1.72,1.45,1012.72
4.409,-1.24,0.14,-0.73,-2.43,-5.33,-0.20,-1.37,1.72,1.45,1012.71
4.411,-1.24,0.14,-0.73,-9.71,-6.95,-2.83,-1.37,1.72,1.45,1012.71
4.441,-1.40,-0.14,-1.45,-9.71,-6.95,-2.83,-1.37,1.72,1.45,1012.71
4.442,-1.40,-0.14,-1.45,-9.71,-6.95,-2.83,-0.54,-0.54,0.86,1012.71
4.443,-1.40,-0.14,-1.45,-11.20,-9.63,-9.99,-0.54,-0.54,0.86,1012.71
4.495,-1.40,-0.14,-1.45,-11.20,-9.63,-9.99,-0.54,-0.54,0.86,1012.72
4.496,-1.02,2.05,-0.70,-11.20,-9.63,-9.99,-0.54,-0.54,0.86,1012.72
4.497,-1.02,2.05,-0.70,-11.20,-9.63,-9.99,0.73,-1.36,-0.57,1012.72
4.498,-1.02,2.05,-0.70,-7.00,11.83,-2.49,0.73,-1.36,-0.57,1012.72
4.515,0.90,1.48,-0.66,-7.00,11.83,-2.49,0.73,-1.36,-0.57,1012.72
4.517,0.90,1.48,-0.66,-7.00,11.83,-2.49,0.21,-1.48,0.64,1012.72
4.518,0.90,1.48,-0.66,11.68,6.09,-2.18,0.21,-1.48,0.64,1012.72
4.519,0.90,1.48,-0.66,11.68,6.09,-2.18,0.21,-1.48,0.64,1012.71
4.556,-0.98,-0.22,-0.37,11.68,6.09,-2.18,0.21,-1.48,0.64,1012.71
4.558,-0.98,-0.22,-0.37,11.68,6.09,-2.18,-0.65,1.62,-0.64,1012.71
4.56,-0.98,-0.22,-0.37,-6.73,-10.52,0.65,-0.65,1.62,-0.64,1012.71
4.578,-0.98,-0.22,-0.37,-6.73,-10.52,0.65,-0.65,1.62,-0.64,1012.70
4.595,-0.80,1.57,-0.58,-6.73,-10.52,0.65,-0.65,1.62,-0.64,1012.70
4.597,-0.80,1.57,-0.58,-6.73,-10.52,0.65,-0.17,-0.04,-0.12,1012.70
4.598,-0.80,1.57,-0.58,-4.76,6.91,-1.41,-0.17,-0.04,-0.12,1012.70
4.656,-0.10,0.95,-0.45,-4.76,6.91,-1.41,-0.17,-0.04,-0.12,1012.70
4.66,-0.10,0.95,-0.45,-4.76,6.91,-1.41,-0.44,-0.00,0.76,1012.70
4.662,-0.10,0.95,-0.45,1.73,0.73,-0.28,-0.44,-0.00,0.76,1012.70
4.664,-0.10,0.95,-0.45,1.73,0.73,-0.28,-0.44,-0.00,0.76,1012.70
4.702,-0.74,0.87,-0.39,1.73,0.73,-0.28,-0.44,-0.00,0.76,1012.70
4.705,-0.74,0.87,-0.39,1.73,0.73,-0.28,-0.49,0.18,0.73,1012.70
4.706,-0.74,0.87,-0.39,-4.67,-0.22,0.10,-0.49,0.18,0.73,1012.70
4.708,-0.74,0.87,-0.39,-4.67,-0.22,0.10,-0.49,0.18,0.73,1012.69
4.716,-0.09,0.91,-0.45,-4.67,-0.22,0.10,-0.49,0.18,0.73,1012.69
4.719,-0.09,0.91,-0.45,-4.67,-0.22,0.10,-0.44,-0.66,1.11,1012.69
4.723,-0.09,0.91,-0.45,1.37,0.02,-0.66,-0.44,-0.66,1.11,1012.69
4.765,0.00,0.88,-0.41,1.37,0.02,-0.66,-0.44,-0.66,1.11,1012.69
4.766,0.00,0.88,-0.41,1.37,0.02,-0.66,-0.53,-0.61,1.00,1012.69
4.767,0.00,0.88,-0.41,1.97,-0.45,-0.47,-0.53,-0.61,1.00,1012.69
4.767,0.00,0.88,-0.41,1.97,-0.45,-0.47,-0.53,-0.61,1.00,1012.69
4.793,0.16,0.84,-0.27,1.97,-0.45,-0.47,-0.53,-0.61,1.00,1012.69
4.795,0.16,0.84,-0.27,1.97,-0.45,-0.47,-0.54,-0.43,0.78,1012.69
4.795,0.16,0.84,-0.27,3.19,-0.94,0.68,-0.54,-0.43,0.78,1012.69
4.818,0.16,0.84,-0.27,3.19,-0.94,0.68,-0.54,-0.43,0.78,1012.70
4.852,0.22,0.87,-0.13,3.19,-0.94,0.68,-0.54,-0.43,0.78,1012.70
4.856,0.22,0.87,-0.13,3.19,-0.94,0.68,-0.39,0.08,0.38,1012.70
4.858,0.22,0.87,-0.13,3.60,-0.71,1.79,-0.39,0.08,0.38,1012.70
4.895,0.01,1.00,-0.11,3.60,-0.71,1.79,-0.39,0.08,0.38,1012.70
4.899,0.01,1.00,-0.11,3.60,-0.71,1.79,-0.12,0.57,-0.06,1012.70
4.9,0.01,1.00,-0.11,1.49,0.48,1.95,-0.12,0.57,-0.06,1012.70
4.901,0.01,1.00,-0.11,1.49,0.48,1.95,-0.12,0.57,-0.06,1012.70
4.911,-0.05,1.06,-0.26,1.49,0.48,1.95,-0.12,0.57,-0.06,1012.70
4.912,-0.05,1.06,-0.26,1.49,0.48,1.95,0.13,0.25,-0.28,1012.70
4.912,-0.05,1.06,-0.26,0.98,1.14,0.61,0.13,0.25,-0.28,1012.70
4.938,-0.05,1.06,-0.26,0.98,1.14,0.61,0.13,0.25,-0.28,1012.71
4.976,-0.12,1.12,-0.44,0.98,1.14,0.61,0.13,0.25,-0.28,1012.71
4.98,-0.12,1.12,-0.44,0.98,1.14,0.61,0.15,-0.16,-0.40,1012.71
4.983,-0.12,1.12,-0.44,0.42,1.73,-1.12,0.15,-0.16,-0.40,1012.71
4.99,-0.15,1.27,-0.48,0.42,1.73,-1.12,0.15,-0.16,-0.40,1012.71
4.991,-0.15,1.27,-0.48,0.42,1.73,-1.12,-0.05,-0.40,-0.35,1012.71
4.991,-0.15,1.27,-0.48,0.26,3.11,-1.56,-0.05,-0.40,-0.35,1012.71
4.998,-0.15,1.27,-0.48,0.26,3.11,-1.56,-0.05,-0.40,-0.35,1012.71
5.051,-0.40,1.54,-0.20,0.26,3.11,-1.56,-0.05,-0.40,-0.35,1012.71
5.054,-0.40,1.54,-0.20,0.26,3.11,-1.56,-0.24,-0.47,-0.20,1012.71
5.056,-0.40,1.54,-0.20,-1.95,5.65,1.08,-0.24,-0.47,-0.20,1012.71
5.06,-0.40,1.54,-0.20,-1.95,5.65,1.08,-0.24,-0.47,-0.20,1012.70
5.088,-0.03,1.77,0.24,-1.95,5.65,1.08,-0.24,-0.47,-0.20,1012.70
5.09,-0.03,1.77,0.24,-1.95,5.65,1.08,-0.34,-1.06,-0.02,1012.70
5.091,-0.03,1.77,0.24,1.75,7.80,5.04,-0.34,-1.06,-0.02,1012.70
5.109,1.05,1.30,0.03,1.75,7.80,5.04,-0.34,-1.06,-0.02,1012.70
5.11,1.05,1.30,0.03,1.75,7.80,5.04,-0.41,0.32,-0.35,1012.70
5.11,1.05,1.30,0.03,12.20,3.05,2.88,-0.41,0.32,-0.35,1012.70
5.118,1.05,1.30,0.03,12.20,3.05,2.88,-0.41,0.32,-0.35,1012.69
5.151,-0.04,1.46,-0.76,12.20,3.05,2.88,-0.41,0.32,-0.35,1012.69
5.153,-0.04,1.46,-0.76,12.20,3.05,2.88,0.18,2.07,-1.94,1012.69
5.155,-0.04,1.46,-0.76,2.01,4.78,-4.60,0.18,2.07,-1.94,1012.69
5.185,-0.04,1.46,-0.76,2.01,4.78,-4.60,0.18,2.07,-1.94,1012.70
5.189,-1.16,1.60,-0.66,2.01,4.78,-4.60,0.18,2.07,-1.94,1012.70
5.191,-1.16,1.60,-0.66,2.01,4.78,-4.60,1.29,0.35,-3.08,1012.70
5.192,-1.16,1.60,-0.66,-7.77,6.56,-3.00,1.29,0.35,-3.08,1012.70
5.23,-0.29,1.47,-0.59,-7.77,6.56,-3.00,1.29,0.35,-3.08,1012.70
5.233,-0.29,1.47,-0.59,-7.77,6.56,-3.00,1.93,-2.01,-2.85,1012.70
5.235,-0.29,1.47,-0.59,2.07,5.91,-2.00,1.93,-2.01,-2.85,1012.70
5.238,-0.29,1.47,-0.59,2.07,5.91,-2.00,1.93,-2.01,-2.85,1012.71
5.271,-0.08,1.05,-0.48,2.07,5.91,-2.00,1.93,-2.01,-2.85,1012.71
5.273,-0.08,1.05,-0.48,2.07,5.91,-2.00,1.54,-1.11,-3.28,1012.71
5.273,-0.08,1.05,-0.48,5.21,2.71,-0.64,1.54,-1.11,-3.28,1012.71
5.303,-0.08,1.05,-0.48,5.21,2.71,-0.64,1.54,-1.11,-3.28,1012.71
5.309,-0.42,0.65,-0.38,5.21,2.71,-0.64,1.54,-1.11,-3.28,1012.71
5.309,-0.42,0.65,-0.38,5.21,2.71,-0.64,1.05,0.36,-3.37,1012.71
5.31,-0.42,0.65,-0.38,2.70,-0.17,0.70,1.05,0.36,-3.37,1012.71
5.345,-0.36,0.61,-0.41,2.70,-0.17,0.70,1.05,0.36,-3.37,1012.71
5.347,-0.36,0.61,-0.41,2.70,-0.17,0.70,0.68,0.20,-2.56,1012.71
5.348,-0.36,0.61,-0.41,3.77,0.29,0.59,0.68,0.20,-2.56,1012.71
5.358,-0.36,0.61,-0.41,3.77,0.29,0.59,0.68,0.20,-2.56,1012.69
5.385,0.02,0.62,-0.47,3.77,0.29,0.59,0.68,0.20,-2.56,1012.69
5.387,0.02,0.62,-0.47,3.77,0.29,0.59,0.04,0.14,-1.67,1012.69
5.387,0.02,0.62,-0.47,7.78,0.83,0.08,0.04,0.14,-1.67,1012.69
5.419,0.02,0.62,-0.47,7.78,0.83,0.08,0.04,0.14,-1.67,1012.67
5.426,0.08,0.33,-0.35,7.78,0.83,0.08,0.04,0.14,-1.67,1012.67
5.429,0.08,0.33,-0.35,7.78,0.83,0.08,-0.87,1.25,-0.95,1012.67
5.431,0.08,0.33,-0.35,8.16,-1.87,1.47,-0.87,1.25,-0.95,1012.67
5.469,-0.12,0.11,-0.32,8.16,-1.87,1.47,-0.87,1.25,-0.95,1012.67
5.473,-0.12,0.11,-0.32,8.16,-1.87,1.47,-1.51,1.89,0.20,1012.67
5.474,-0.12,0.11,-0.32,5.66,-4.23,1.95,-1.51,1.89,0.20,1012.67
5.478,-0.12,0.11,-0.32,5.66,-4.23,1.95,-1.51,1.89,0.20,1012.66
5.506,-0.07,0.17,-0.36,5.66,-4.23,1.95,-1.51,1.89,0.20,1012.66
5.509,-0.07,0.17,-0.36,5.66,-4.23,1.95,-2.03,2.11,1.55,1012.66
5.511,-0.07,0.17,-0.36,5.32,-4.45,1.58,-2.03,2.11,1.55,1012.66
5.541,-0.07,0.17,-0.36,5.32,-4.45,1.58,-2.03,2.11,1.55,1012.66
5.543,-0.10,0.21,-0.45,5.32,-4.45,1.58,-2.03,2.11,1.55,1012.66
5.545,-0.10,0.21,-0.45,5.32,-4.45,1.58,-2.49,2.65,2.30,1012.66
5.57,-0.10,0.21,-0.45,3.83,-4.89,0.65,-2.49,2.65,2.30,1012.66
5.582,-0.41,0.33,-0.57,3.83,-4.89,0.65,-2.49,2.65,2.30,1012.66
5.584,-0.41,0.33,-0.57,3.83,-4.89,0.65,-2.80,2.70,2.67,1012.66
5.584,-0.41,0.33,-0.57,-0.51,-4.66,-0.95,-2.80,2.70,2.67,1012.66
5.597,-0.41,0.33,-0.57,-0.51,-4.66,-0.95,-2.80,2.70,2.67,1012.67
5.623,-0.64,0.40,-0.51,-0.51,-4.66,-0.95,-2.80,2.70,2.67,1012.67
5.626,-0.64,0.40,-0.51,-0.51,-4.66,-0.95,-2.91,1.56,2.81,1012.67
5.628,-0.64,0.40,-0.51,-3.91,-4.69,-1.06,-2.91,1.56,2.81,1012.67
5.657,-0.64,0.40,-0.51,-3.91,-4.69,-1.06,-2.91,1.56,2.81,1012.69
5.662,-0.53,0.44,-0.65,-3.91,-4.69,-1.06,-2.91,1.56,2.81,1012.69
5.663,-0.53,0.44,-0.65,-3.91,-4.69,-1.06,-2.56,1.28,2.58,1012.69
5.664,-0.53,0.44,-0.65,-3.80,-4.79,-3.18,-2.56,1.28,2.58,1012.69
5.701,-0.71,0.56,-0.95,-3.80,-4.79,-3.18,-2.56,1.28,2.58,1012.69
5.704,-0.71,0.56,-0.95,-3.80,-4.79,-3.18,-1.90,2.36,1.54,1012.69
5.706,-0.71,0.56,-0.95,-6.29,-3.82,-6.65,-1.90,2.36,1.54,1012.69
5.717,-0.71,0.56,-0.95,-6.29,-3.82,-6.65,-1.90,2.36,1.54,1012.67
5.741,-1.09,0.22,-1.11,-6.29,-3.82,-6.65,-1.90,2.36,1.54,1012.67
5.744,-1.09,0.22,-1.11,-6.29,-3.82,-6.65,-0.91,2.34,0.30,1012.67
5.746,-1.09,0.22,-1.11,-10.26,-7.04,-8.36,-0.91,2.34,0.30,1012.67
5.777,-1.09,0.22,-1.11,-10.26,-7.04,-8.36,-0.91,2.34,0.30,1012.66
5.779,-1.27,3.30,-0.52,-10.26,-7.04,-8.36,-0.91,2.34,0.30,1012.66
5.78,-1.27,3.30,-0.52,-10.26,-7.04,-8.36,0.40,0.04,-1.29,1012.66
5.78,-1.27,3.30,-0.52,-11.33,22.83,-2.40,0.40,0.04,-1.29,1012.66
5.82,0.85,-0.22,-0.31,-11.33,22.83,-2.40,0.40,0.04,-1.29,1012.66
5.822,0.85,-0.22,-0.31,-11.33,22.83,-2.40,0.42,-1.88,-0.18,1012.66
5.823,0.85,-0.22,-0.31,9.57,-11.42,-0.27,0.42,-1.88,-0.18,1012.66
5.838,0.85,-0.22,-0.31,9.57,-11.42,-0.27,0.42,-1.88,-0.18,1012.66
5.86,-0.36,0.56,-0.37,9.57,-11.42,-0.27,0.42,-1.88,-0.18,1012.66
5.864,-0.36,0.56,-0.37,9.57,-11.42,-0.27,0.12,2.02,-0.66,1012.66
5.865,-0.36,0.56,-0.37,-2.24,-3.74,-0.77,0.12,2.02,-0.66,1012.66
5.897,-0.36,0.56,-0.37,-2.24,-3.74,-0.77,0.12,2.02,-0.66,1012.67
5.898,-0.36,0.56,-0.37,-12.25,8.53,-0.93,0.12,2.02,-0.66,1012.67
5.899,-1.44,1.82,-0.40,-12.25,8.53,-0.93,0.12,2.02,-0.66,1012.67
5.9,-1.44,1.82,-0.40,-12.25,8.53,-0.93,0.05,1.04,-1.25,1012.67
5.952,0.31,0.50,-0.34,-12.25,8.53,-0.93,0.05,1.04,-1.25,1012.67
5.956,0.31,0.50,-0.34,-12.25,8.53,-0.93,0.10,-0.66,0.73,1012.67
5.958,0.31,0.50,-0.34,4.59,-4.34,-0.38,0.10,-0.66,0.73,1012.67
5.96,0.31,0.50,-0.34,4.59,-4.34,-0.38,0.10,-0.66,0.73,1012.68
6.006,-0.47,1.22,-0.29,4.59,-4.34,-0.38,0.10,-0.66,0.73,1012.68
6.017,-0.47,1.22,-0.29,4.59,-4.34,-0.38,-0.16,0.19,-0.10,1012.68
6.02,-0.47,1.22,-0.29,-2.99,2.70,0.12,-0.16,0.19,-0.10,1012.68
6.021,-0.22,0.88,-0.21,-2.99,2.70,0.12,-0.16,0.19,-0.10,1012.68
6.022,-0.22,0.88,-0.21,-2.99,2.70,0.12,-0.21,0.32,0.36,1012.68
6.024,-0.22,0.88,-0.21,-2.99,2.70,0.12,-0.21,0.32,0.36,1012.67
6.025,-0.22,0.88,-0.21,-0.64,-0.66,0.78,-0.21,0.32,0.36,1012.67
6.071,-0.33,1.00,-0.28,-0.64,-0.66,0.78,-0.21,0.32,0.36,1012.67
6.075,-0.33,1.00,-0.28,-0.64,-0.66,0.78,-0.13,-0.03,0.39,1012.67
6.077,-0.33,1.00,-0.28,-1.91,0.43,0.12,-0.13,-0.03,0.39,1012.67
6.078,-0.33,1.00,-0.28,-1.91,0.43,0.12,-0.13,-0.03,0.39,1012.67
6.101,0.05,0.94,-0.24,-1.91,0.43,0.12,-0.13,-0.03,0.39,1012.67
6.102,0.05,0.94,-0.24,-1.91,0.43,0.12,-0.15,-0.47,0.57,1012.67
6.103,0.05,0.94,-0.24,1.62,-0.18,0.34,-0.15,-0.47,0.57,1012.67
6.14,-0.00,1.00,-0.19,1.62,-0.18,0.34,-0.15,-0.47,0.57,1012.67
6.141,-0.00,1.00,-0.19,1.62,-0.18,0.34,-0.18,0.05,0.37,1012.67
6.142,-0.00,1.00,-0.19,0.99,0.34,0.79,-0.18,0.05,0.37,1012.67
6.142,-0.00,1.00,-0.19,0.99,0.34,0.79,-0.18,0.05,0.37,1012.66
6.181,-0.00,0.95,-0.17,0.99,0.34,0.79,-0.18,0.05,0.37,1012.66
6.184,-0.00,0.95,-0.17,0.99,0.34,0.79,-0.12,0.04,0.20,1012.66
6.186,-0.00,0.95,-0.17,0.91,-0.19,0.89,-0.12,0.04,0.20,1012.66
6.2,-0.00,0.95,-0.17,0.91,-0.19,0.89,-0.12,0.04,0.20,1012.67
6.218,0.07,0.96,-0.16,0.91,-0.19,0.89,-0.12,0.04,0.20,1012.67
6.222,0.07,0.96,-0.16,0.91,-0.19,0.89,0.01,-0.07,0.00,1012.67
6.225,0.07,0.96,-0.16,1.56,-0.10,0.97,0.01,-0.07,0.00,1012.67
6.267,0.02,1.01,-0.21,1.56,-0.10,0.97,0.01,-0.07,0.00,1012.67
6.268,0.02,1.01,-0.21,1.56,-0.10,0.97,0.12,0.07,-0.30,1012.67
6.269,0.02,1.01,-0.21,1.15,0.41,0.60,0.12,0.07,-0.30,1012.67
6.27,0.02,1.01,-0.21,1.15,0.41,0.60,0.12,0.07,-0.30,1012.67
6.312,-0.01,0.95,-0.23,1.15,0.41,0.60,0.12,0.07,-0.30,1012.67
6.317,-0.01,0.95,-0.23,1.15,0.41,0.60,0.18,0.01,-0.50,1012.67
6.319,-0.01,0.95,-0.23,1.03,-0.07,0.46,0.18,0.01,-0.50,1012.67
6.32,-0.01,0.95,-0.23,1.03,-0.07,0.46,0.18,0.01,-0.50,1012.67
6.334,-0.16,0.97,-0.22,1.03,-0.07,0.46,0.18,0.01,-0.50,1012.67
6.335,-0.16,0.97,-0.22,1.03,-0.07,0.46,0.22,0.10,-0.71,1012.67
6.337,-0.16,0.97,-0.22,-0.16,0.17,0.57,0.22,0.10,-0.71,1012.67
6.377,-0.14,0.97,-0.31,-0.16,0.17,0.57,0.22,0.10,-0.71,1012.67
6.379,-0.14,0.97,-0.31,-0.16,0.17,0.57,0.25,-0.14,-0.74,1012.67
6.381,-0.14,0.97,-0.31,-0.16,0.17,0.57,0.25,-0.14,-0.74,1012.67
6.382,-0.14,0.97,-0.31,0.30,0.23,-0.22,0.25,-0.14,-0.74,1012.67
6.414,-0.19,0.99,-0.38,0.30,0.23,-0.22,0.25,-0.14,-0.74,1012.67
6.415,-0.19,0.99,-0.38,0.10,0.48,-0.84,0.25,-0.14,-0.74,1012.67
6.416,-0.19,0.99,-0.38,0.10,0.48,-0.84,0.14,-0.01,-0.73,1012.67
6.436,-0.19,0.99,-0.38,0.10,0.48,-0.84,0.14,-0.01,-0.73,1012.66
6.472,-0.25,1.29,-0.36,0.10,0.48,-0.84,0.14,-0.01,-0.73,1012.66
6.475,-0.25,1.29,-0.36,-0.23,3.45,-0.67,0.14,-0.01,-0.73,1012.66
6.477,-0.25,1.29,-0.36,-0.23,3.45,-0.67,-0.06,-0.05,-0.68,1012.66
6.513,-0.33,1.60,-0.13,-0.23,3.45,-0.67,-0.06,-0.05,-0.68,1012.66
6.515,-0.33,1.60,-0.13,-0.23,3.45,-0.67,-0.36,-0.46,-0.62,1012.66
6.515,-0.33,1.60,-0.13,-0.69,6.37,1.38,-0.36,-0.46,-0.62,1012.66
6.516,-0.33,1.60,-0.13,-0.69,6.37,1.38,-0.36,-0.46,-0.62,1012.67
6.533,-0.03,1.74,0.27,-0.69,6.37,1.38,-0.36,-0.46,-0.62,1012.67
6.535,-0.03,1.74,0.27,-0.69,6.37,1.38,-0.67,-0.46,-0.73,1012.67
6.536,-0.03,1.74,0.27,2.51,7.60,4.92,-0.67,-0.46,-0.73,1012.67
6.557,-0.03,1.74,0.27,2.51,7.60,4.92,-0.67,-0.46,-0.73,1012.66
6.585,0.59,1.58,0.21,2.51,7.60,4.92,-0.67,-0.46,-0.73,1012.66
6.586,0.59,1.58,0.21,2.51,7.60,4.92,-0.86,0.26,-1.08,1012.66
6.587,0.59,1.58,0.21,8.79,6.02,4.00,-0.86,0.26,-1.08,1012.66
6.622,1.00,1.21,-0.33,8.79,6.02,4.00,-0.86,0.26,-1.08,1012.66
6.624,1.00,1.21,-0.33,8.79,6.02,4.00,-0.49,1.18,-1.48,1012.66
6.625,1.00,1.21,-0.33,13.08,2.49,-1.27,-0.49,1.18,-1.48,1012.66
6.626,1.00,1.21,-0.33,13.08,2.49,-1.27,-0.49,1.18,-1.48,1012.66
6.656,0.33,1.44,-0.77,13.08,2.49,-1.27,-0.49,1.18,-1.48,1012.66
6.658,0.33,1.44,-0.77,13.08,2.49,-1.27,0.09,4.00,-3.12,1012.66
6.659,0.33,1.44,-0.77,7.17,5.08,-4.88,0.09,4.00,-3.12,1012.66
6.677,0.33,1.44,-0.77,7.17,5.08,-4.88,0.09,4.00,-3.12,1012.66
6.688,-1.04,1.28,-0.88,7.17,5.08,-4.88,0.09,4.00,-3.12,1012.66
6.689,-1.04,1.28,-0.88,7.17,5.08,-4.88,0.11,3.92,-4.43,1012.66
6.69,-1.04,1.28,-0.88,-5.18,4.27,-5.20,0.11,3.92,-4.43,1012.66
6.729,-0.33,1.16,-0.99,-5.18,4.27,-5.20,0.11,3.92,-4.43,1012.66
6.73,-0.33,1.16,-0.99,-5.18,4.27,-5.20,-0.07,1.11,-3.28,1012.66
6.73,-0.33,1.16,-0.99,2.63,3.72,-5.93,-0.07,1.11,-3.28,1012.66
6.739,-0.33,1.16,-0.99,2.63,3.72,-5.93,-0.07,1.11,-3.28,1012.68
6.767,-0.11,0.91,-0.85,2.63,3.72,-5.93,-0.07,1.11,-3.28,1012.68
6.768,-0.11,0.91,-0.85,2.63,3.72,-5.93,-0.83,0.21,-2.92,1012.68
6.769,-0.11,0.91,-0.85,5.48,1.79,-4.67,-0.83,0.21,-2.92,1012.68
6.796,-0.11,0.91,-0.85,5.48,1.79,-4.67,-0.83,0.21,-2.92,1012.68
6.808,-0.18,0.58,-0.93,5.48,1.79,-4.67,-0.83,0.21,-2.92,1012.68
6.81,-0.18,0.58,-0.93,5.48,1.79,-4.67,-1.57,1.72,-2.69,1012.68
6.813,-0.18,0.58,-0.93,5.25,-0.84,-5.36,-1.57,1.72,-2.69,1012.68
6.848,-0.14,0.46,-1.16,5.25,-0.84,-5.36,-1.57,1.72,-2.69,1012.68
6.853,-0.14,0.46,-1.16,5.25,-0.84,-5.36,-2.11,3.45,-2.13,1012.68
6.855,-0.14,0.46,-1.16,5.52,-1.79,-7.05,-2.11,3.45,-2.13,1012.68
6.858,-0.14,0.46,-1.16,5.52,-1.79,-7.05,-2.11,3.45,-2.13,1012.69
6.888,-0.14,0.46,-1.16,4.23,-2.57,-6.93,-2.11,3.45,-2.13,1012.69
6.891,-0.23,0.38,-1.21,4.23,-2.57,-6.93,-2.11,3.45,-2.13,1012.69
6.892,-0.23,0.38,-1.21,4.23,-2.57,-6.93,-2.60,4.07,-1.53,1012.69
6.916,-0.23,0.38,-1.21,4.23,-2.57,-6.93,-2.60,4.07,-1.53,1012.67
6.926,-0.35,0.30,-1.13,4.23,-2.57,-6.93,-2.60,4.07,-1.53,1012.67
6.929,-0.35,0.30,-1.13,4.23,-2.57,-6.93,-2.98,3.08,-0.72,1012.67
6.93,-0.35,0.30,-1.13,2.57,-3.72,-6.05,-2.98,3.08,-0.72,1012.67
6.966,-0.29,0.22,-0.89,2.57,-3.72,-6.05,-2.98,3.08,-0.72,1012.67
6.969,-0.29,0.22,-0.89,2.57,-3.72,-6.05,-3.13,1.75,0.36,1012.67
6.971,-0.29,0.22,-0.89,2.68,-5.03,-4.11,-3.13,1.75,0.36,1012.67
6.976,-0.29,0.22,-0.89,2.68,-5.03,-4.11,-3.13,1.75,0.36,1012.65
7.005,-0.08,0.18,-0.69,2.68,-5.03,-4.11,-3.13,1.75,0.36,1012.65
7.007,-0.08,0.18,-0.69,2.68,-5.03,-4.11,-3.02,1.52,1.42,1012.65
7.008,-0.08,0.18,-0.69,4.01,-6.19,-2.71,-3.02,1.52,1.42,1012.65
7.04,-0.08,0.18,-0.69,4.01,-6.19,-2.71,-3.02,1.52,1.42,1012.64
7.045,0.05,0.16,-0.71,4.01,-6.19,-2.71,-3.02,1.52,1.42,1012.64
7.046,0.05,0.16,-0.71,4.01,-6.19,-2.71,-2.91,3.38,2.03,1012.64
7.046,0.05,0.16,-0.71,3.96,-7.05,-3.28,-2.91,3.38,2.03,1012.64
7.084,-0.37,0.26,-0.93,3.96,-7.05,-3.28,-2.91,3.38,2.03,1012.64
7.088,-0.37,0.26,-0.93,3.96,-7.05,-3.28,-3.02,5.07,2.08,1012.64
7.089,-0.37,0.26,-0.93,-1.52,-6.55,-5.83,-3.02,5.07,2.08,1012.64
7.096,-0.37,0.26,-0.93,-1.52,-6.55,-5.83,-3.02,5.07,2.08,1012.64
7.126,-0.91,0.33,-0.87,-1.52,-6.55,-5.83,-3.02,5.07,2.08,1012.64
7.129,-0.91,0.33,-0.87,-1.52,-6.55,-5.83,-3.05,3.58,2.15,1012.64
7.131,-0.91,0.33,-0.87,-7.86,-6.20,-6.07,-3.05,3.58,2.15,1012.64
7.17,-0.91,0.33,-0.87,-7.86,-6.20,-6.07,-3.05,3.58,2.15,1012.64
7.174,-0.76,0.48,-0.84,-7.86,-6.20,-6.07,-3.05,3.58,2.15,1012.64
7.176,-0.76,0.48,-0.84,-7.86,-6.20,-6.07,-2.40,1.03,2.06,1012.64
7.177,-0.76,0.48,-0.84,-7.13,-4.98,-6.54,-2.40,1.03,2.06,1012.64
7.203,-0.57,0.52,-0.76,-7.13,-4.98,-6.54,-2.40,1.03,2.06,1012.64
7.205,-0.57,0.52,-0.76,-7.13,-4.98,-6.54,-1.43,0.79,1.22,1012.64
7.206,-0.57,0.52,-0.76,-5.77,-4.51,-6.14,-1.43,0.79,1.22,1012.64
7.217,-0.57,0.52,-0.76,-5.77,-4.51,-6.14,-1.43,0.79,1.22,1012.64
7.242,-0.76,0.31,-0.71,-5.77,-4.51,-6.14,-1.43,0.79,1.22,1012.64
7.245,-0.76,0.31,-0.71,-5.77,-4.51,-6.14,-0.26,1.64,0.07,1012.64
7.247,-0.76,0.31,-0.71,-7.59,-6.55,-5.71,-0.26,1.64,0.07,1012.64
7.284,-0.76,0.31,-0.71,-7.59,-6.55,-5.71,-0.26,1.64,0.07,1012.63
7.286,-1.63,2.55,-0.60,-7.59,-6.55,-5.71,-0.26,1.64,0.07,1012.63
7.287,-1.63,2.55,-0.60,-7.59,-6.55,-5.71,1.00,1.41,-2.11,1012.63
7.288,-1.63,2.55,-0.60,-15.09,15.31,-4.16,1.00,1.41,-2.11,1012.63
7.378,0.90,0.50,-0.25,-15.09,15.31,-4.16,1.00,1.41,-2.11,1012.63
7.379,0.90,0.50,-0.25,-15.09,15.31,-4.16,0.58,-1.07,-0.21,1012.63
7.38,0.90,0.50,-0.25,9.67,-4.73,-0.60,0.58,-1.07,-0.21,1012.63
7.381,0.90,0.50,-0.25,9.67,-4.73,-0.60,0.58,-1.07,-0.21,1012.62
7.381,-0.63,0.68,-0.46,9.67,-4.73,-0.60,0.58,-1.07,-0.21,1012.62
7.382,-0.63,0.68,-0.46,9.67,-4.73,-0.60,0.36,1.39,-0.74,1012.62
7.383,-0.63,0.68,-0.46,-5.06,-2.79,-2.39,0.36,1.39,-0.74,1012.62
7.394,-0.63,0.68,-0.46,-5.06,-2.79,-2.39,0.36,1.39,-0.74,1012.61
7.406,-1.34,1.15,-0.39,-5.06,-2.79,-2.39,0.36,1.39,-0.74,1012.61
7.408,-1.34,1.15,-0.39,-5.06,-2.79,-2.39,0.22,0.94,-0.83,1012.61
7.409,-1.34,1.15,-0.39,-11.55,1.76,-1.55,0.22,0.94,-0.83,1012.61
7.439,0.37,1.05,-0.32,-11.55,1.76,-1.55,0.22,0.94,-0.83,1012.61
7.44,0.37,1.05,-0.32,-11.55,1.76,-1.55,0.13,-0.44,0.75,1012.61
7.44,0.37,1.05,-0.32,4.82,0.79,-0.81,0.13,-0.44,0.75,1012.61
7.454,0.37,1.05,-0.32,4.82,0.79,-0.81,0.13,-0.44,0.75,1012.61
7.49,-0.72,0.93,-0.32,4.82,0.79,-0.81,0.13,-0.44,0.75,1012.61
7.491,-0.72,0.93,-0.32,4.82,0.79,-0.81,-0.12,0.76,0.18,1012.61
7.492,-0.72,0.93,-0.32,-5.89,-0.39,-0.85,-0.12,0.76,0.18,1012.61
7.515,-0.72,0.93,-0.32,-5.89,-0.39,-0.85,-0.12,0.76,0.18,1012.62
7.518,-0.17,0.94,-0.27,-5.89,-0.39,-0.85,-0.12,0.76,0.18,1012.62
7.519,-0.17,0.94,-0.27,-5.89,-0.39,-0.85,-0.20,-0.05,0.69,1012.62
7.52,-0.17,0.94,-0.27,-0.75,-0.31,-0.39,-0.20,-0.05,0.69,1012.62
7.574,-0.04,0.98,-0.27,-0.75,-0.31,-0.39,-0.20,-0.05,0.69,1012.62
7.578,-0.04,0.98,-0.27,-0.75,-0.31,-0.39,-0.29,0.19,0.65,1012.62
7.58,-0.04,0.98,-0.27,0.30,0.00,-0.48,-0.29,0.19,0.65,1012.62
7.582,-0.04,0.98,-0.27,0.30,0.00,-0.48,-0.29,0.19,0.65,1012.63
7.613,-0.25,0.95,-0.21,0.30,0.00,-0.48,-0.29,0.19,0.65,1012.63
7.615,-0.25,0.95,-0.21,0.30,0.00,-0.48,-0.36,0.29,0.57,1012.63
7.617,-0.25,0.95,-0.21,-1.98,-0.31,-0.05,-0.36,0.29,0.57,1012.63
7.634,-0.25,0.95,-0.21,-1.98,-0.31,-0.05,-0.36,0.29,0.57,1012.64
7.636,0.09,0.98,-0.20,-1.98,-0.31,-0.05,-0.36,0.29,0.57,1012.64
7.637,0.09,0.98,-0.20,-1.98,-0.31,-0.05,-0.36,0.03,0.62,1012.64
7.637,0.09,0.98,-0.20,1.09,-0.07,-0.04,-0.36,0.03,0.62,1012.64
7.677,0.05,0.95,-0.16,1.09,-0.07,-0.04,-0.36,0.03,0.62,1012.64
7.681,0.05,0.95,-0.16,1.09,-0.07,-0.04,-0.34,0.29,0.38,1012.64
7.683,0.05,0.95,-0.16,0.56,-0.40,0.20,-0.34,0.29,0.38,1012.64
7.705,0.05,0.95,-0.16,0.56,-0.40,0.20,-0.34,0.29,0.38,1012.63
7.719,0.05,0.99,-0.11,0.56,-0.40,0.20,-0.34,0.29,0.38,1012.63
7.722,0.05,0.99,-0.11,0.56,-0.40,0.20,-0.26,0.34,0.16,1012.63
7.724,0.05,0.99,-0.11,0.41,-0.02,0.53,-0.26,0.34,0.16,1012.63
7.774,0.05,0.99,-0.11,0.41,-0.02,0.53,-0.26,0.34,0.16,1012.63
7.777,-0.03,0.99,-0.14,0.41,-0.02,0.53,-0.26,0.34,0.16,1012.63
7.779,-0.03,0.99,-0.14,0.41,-0.02,0.53,-0.17,0.32,-0.03,1012.63
7.781,-0.03,0.99,-0.14,-0.33,-0.07,0.20,-0.17,0.32,-0.03,1012.63
7.805,-0.04,0.96,-0.15,-0.33,-0.07,0.20,-0.17,0.32,-0.03,1012.63
7.81,-0.04,0.96,-0.15,-0.33,-0.07,0.20,-0.10,0.22,-0.15,1012.63
7.812,-0.04,0.96,-0.15,-0.40,-0.33,0.03,-0.10,0.22,-0.15,1012.63
7.815,-0.04,0.96,-0.15,-0.40,-0.33,0.03,-0.10,0.22,-0.15,1012.63
7.836,0.05,1.00,-0.07,-0.40,-0.33,0.03,-0.10,0.22,-0.15,1012.63
7.837,0.05,1.00,-0.07,-0.40,-0.33,0.03,0.01,-0.04,-0.29,1012.63
7.837,0.05,1.00,-0.07,0.62,0.07,0.80,0.01,-0.04,-0.29,1012.63
7.874,-0.02,1.08,-0.19,0.62,0.07,0.80,0.01,-0.04,-0.29,1012.63
7.877,-0.02,1.08,-0.19,0.62,0.07,0.80,0.14,-0.03,-0.54,1012.63
7.879,-0.02,1.08,-0.19,0.12,0.84,-0.24,0.14,-0.03,-0.54,1012.63
7.88,-0.02,1.08,-0.19,0.12,0.84,-0.24,0.14,-0.03,-0.54,1012.63
7.92,-0.28,1.07,-0.39,0.12,0.84,-0.24,0.14,-0.03,-0.54,1012.63
7.924,-0.28,1.07,-0.39,0.12,0.84,-0.24,0.12,-0.22,-0.60,1012.63
7.926,-0.28,1.07,-0.39,-2.20,0.75,-2.19,0.12,-0.22,-0.60,1012.63
7.936,-0.28,1.07,-0.39,-2.20,0.75,-2.19,0.12,-0.22,-0.60,1012.62
7.953,-0.29,0.68,-0.18,-2.20,0.75,-2.19,0.12,-0.22,-0.60,1012.62
7.954,-0.29,0.68,-0.18,-2.11,-3.03,-0.15,0.12,-0.22,-0.60,1012.62
7.956,-0.29,0.68,-0.18,-2.11,-3.03,-0.15,-0.20,-0.03,-0.23,1012.62
7.994,-0.33,1.05,-0.06,-2.11,-3.03,-0.15,-0.20,-0.03,-0.23,1012.62
7.997,-0.33,1.05,-0.06,-2.11,-3.03,-0.15,-0.18,-0.05,-0.20,1012.62
7.998,-0.33,1.05,-0.06,-2.44,0.61,0.90,-0.18,-0.05,-0.20,1012.62
8.0,-0.33,1.05,-0.06,-2.44,0.61,0.90,-0.18,-0.05,-0.20,1012.62
8.032,-0.15,1.16,-0.23,-2.44,0.61,0.90,-0.18,-0.05,-0.20,1012.62
8.034,-0.15,1.16,-0.23,-2.44,0.61,0.90,-0.11,-0.78,-0.06,1012.62
8.035,-0.15,1.16,-0.23,-0.51,1.63,-0.83,-0.11,-0.78,-0.06,1012.62
8.054,-0.15,1.16,-0.23,-0.51,1.63,-0.83,-0.11,-0.78,-0.06,1012.63
8.081,-0.02,0.86,-0.22,-0.51,1.63,-0.83,-0.11,-0.78,-0.06,1012.63
8.083,-0.02,0.86,-0.22,-0.51,1.63,-0.83,-0.23,-0.81,0.02,1012.63
8.084,-0.02,0.86,-0.22,0.75,-1.30,-0.82,-0.23,-0.81,0.02,1012.63
8.128,-0.19,1.02,-0.13,0.75,-1.30,-0.82,-0.23,-0.81,0.02,1012.63
8.131,-0.19,1.02,-0.13,0.75,-1.30,-0.82,-0.34,-0.32,-0.17,1012.63
8.134,-0.19,1.02,-0.13,-0.83,0.25,-0.11,-0.34,-0.32,-0.17,1012.63
8.135,-0.19,1.02,-0.13,-0.83,0.25,-0.11,-0.34,-0.32,-0.17,1012.63
8.159,-0.10,1.05,-0.08,-0.83,0.25,-0.11,-0.34,-0.32,-0.17,1012.63
8.161,-0.10,1.05,-0.08,-0.83,0.25,-0.11,-0.37,-0.44,-0.19,1012.63
8.162,-0.10,1.05,-0.08,0.14,0.52,0.25,-0.37,-0.44,-0.19,1012.63
8.19,-0.10,1.05,-0.08,0.14,0.52,0.25,-0.37,-0.44,-0.19,1012.62
8.192,-0.19,0.94,-0.02,0.14,0.52,0.25,-0.37,-0.44,-0.19,1012.62
8.193,-0.19,0.94,-0.02,0.14,0.52,0.25,-0.32,-0.31,-0.22,1012.62
8.194,-0.19,0.94,-0.02,-0.63,-0.56,0.74,-0.32,-0.31,-0.22,1012.62
8.23,-0.17,1.00,-0.06,-0.63,-0.56,0.74,-0.32,-0.31,-0.22,1012.62
8.234,-0.17,1.00,-0.06,-0.63,-0.56,0.74,-0.25,-0.14,-0.27,1012.62
8.236,-0.17,1.00,-0.06,-0.29,0.11,0.19,-0.25,-0.14,-0.27,1012.62
8.237,-0.17,1.00,-0.06,-0.29,0.11,0.19,-0.25,-0.14,-0.27,1012.62
8.287,-0.22,0.97,-0.02,-0.29,0.11,0.19,-0.25,-0.14,-0.27,1012.62
8.29,-0.22,0.97,-0.02,-0.73,-0.24,0.49,-0.25,-0.14,-0.27,1012.62
8.291,-0.22,0.97,-0.02,-0.73,-0.24,0.49,-0.21,-0.07,-0.28,1012.62
8.294,-0.22,0.97,-0.02,-0.73,-0.24,0.49,-0.21,-0.07,-0.28,1012.62
8.325,-0.25,0.97,-0.04,-0.73,-0.24,0.49,-0.21,-0.07,-0.28,1012.62
8.328,-0.25,0.97,-0.04,-0.73,-0.24,0.49,-0.14,-0.08,-0.26,1012.62
8.329,-0.25,0.97,-0.04,-0.86,-0.18,0.28,-0.14,-0.08,-0.26,1012.62
8.349,-0.30,0.98,-0.04,-0.86,-0.18,0.28,-0.14,-0.08,-0.26,1012.62
8.35,-0.30,0.98,-0.04,-0.86,-0.18,0.28,-0.09,-0.09,-0.22,1012.62
8.351,-0.30,0.98,-0.04,-1.25,-0.13,0.15,-0.09,-0.09,-0.22,1012.62
8.365,-0.30,0.98,-0.04,-1.25,-0.13,0.15,-0.09,-0.09,-0.22,1012.62
8.412,-0.27,0.99,-0.02,-1.25,-0.13,0.15,-0.09,-0.09,-0.22,1012.62
8.413,-0.27,0.99,-0.02,-1.25,-0.13,0.15,-0.04,-0.28,-0.13,1012.62
8.414,-0.27,0.99,-0.02,-0.90,0.03,0.33,-0.04,-0.28,-0.13,1012.62
8.414,-0.27,0.99,-0.02,-0.90,0.03,0.33,-0.04,-0.28,-0.13,1012.62
8.427,-0.26,0.98,-0.01,-0.90,0.03,0.33,-0.04,-0.28,-0.13,1012.62
8.428,-0.26,0.98,-0.01,-0.90,0.03,0.33,0.01,-0.29,-0.08,1012.62
8.429,-0.26,0.98,-0.01,-0.70,-0.10,0.38,0.01,-0.29,-0.08,1012.62
8.469,-0.24,0.98,-0.06,-0.70,-0.10,0.38,0.01,-0.29,-0.08,1012.62
8.473,-0.24,0.98,-0.06,-0.70,-0.10,0.38,0.04,-0.25,-0.06,1012.62
8.475,-0.24,0.98,-0.06,-0.51,-0.03,-0.07,0.04,-0.25,-0.06,1012.62
8.479,-0.24,0.98,-0.06,-0.51,-0.03,-0.07,0.04,-0.25,-0.06,1012.61
8.508,-0.22,0.99,-0.09,-0.51,-0.03,-0.07,0.04,-0.25,-0.06,1012.61
8.509,-0.22,0.99,-0.09,-0.51,-0.03,-0.07,0.03,-0.23,-0.03,1012.61
8.51,-0.22,0.99,-0.09,-0.24,0.01,-0.34,0.03,-0.23,-0.03,1012.61
8.535,-0.22,0.99,-0.09,-0.24,0.01,-0.34,0.03,-0.23,-0.03,1012.61
8.547,-0.25,0.99,-0.06,-0.24,0.01,-0.34,0.03,-0.23,-0.03,1012.61
8.551,-0.25,0.99,-0.06,-0.24,0.01,-0.34,-0.00,-0.16,-0.07,1012.61
8.553,-0.25,0.99,-0.06,-0.55,0.00,-0.09,-0.00,-0.16,-0.07,1012.61
8.588,-0.25,0.99,-0.06,-0.58,-0.18,0.01,-0.00,-0.16,-0.07,1012.61
8.59,-0.26,0.97,-0.05,-0.58,-0.18,0.01,-0.00,-0.16,-0.07,1012.61
8.59,-0.26,0.97,-0.05,-0.58,-0.18,0.01,-0.01,-0.12,-0.06,1012.61
8.593,-0.26,0.97,-0.05,-0.58,-0.18,0.01,-0.01,-0.12,-0.06,1012.60
8.624,-0.26,0.98,-0.04,-0.58,-0.18,0.01,-0.01,-0.12,-0.06,1012.60
8.625,-0.26,0.98,-0.04,-0.58,-0.18,0.01,-0.01,-0.07,-0.04,1012.60
8.626,-0.26,0.98,-0.04,-0.61,-0.08,0.08,-0.01,-0.07,-0.04,1012.60
8.657,-0.26,0.98,-0.04,-0.61,-0.08,0.08,-0.01,-0.07,-0.04,1012.59
8.664,-0.23,0.98,-0.04,-0.61,-0.08,0.08,-0.01,-0.07,-0.04,1012.59
8.665,-0.23,0.98,-0.04,-0.61,-0.08,0.08,-0.00,-0.05,-0.05,1012.59
8.665,-0.23,0.98,-0.04,-0.28,-0.02,0.07,-0.00,-0.05,-0.05,1012.59
8.703,-0.26,0.97,-0.05,-0.28,-0.02,0.07,-0.00,-0.05,-0.05,1012.59
8.704,-0.26,0.97,-0.05,-0.28,-0.02,0.07,-0.01,0.03,-0.07,1012.59
8.705,-0.26,0.97,-0.05,-0.48,-0.17,-0.02,-0.01,0.03,-0.07,1012.59
8.712,-0.26,0.97,-0.05,-0.48,-0.17,-0.02,-0.01,0.03,-0.07,1012.59
8.743,-0.23,0.99,-0.07,-0.48,-0.17,-0.02,-0.01,0.03,-0.07,1012.59
8.744,-0.23,0.99,-0.07,-0.48,-0.17,-0.02,-0.02,0.06,-0.09,1012.59
8.745,-0.23,0.99,-0.07,-0.17,0.03,-0.19,-0.02,0.06,-0.09,1012.59
8.772,-0.23,0.99,-0.07,-0.17,0.03,-0.19,-0.02,0.06,-0.09,1012.59
8.786,-0.30,0.96,-0.06,-0.17,0.03,-0.19,-0.02,0.06,-0.09,1012.59
8.787,-0.30,0.96,-0.06,-0.17,0.03,-0.19,-0.05,0.15,-0.09,1012.59
8.787,-0.30,0.96,-0.06,-0.83,-0.23,-0.13,-0.05,0.15,-0.09,1012.59
